#K-Path(1/A) Energy-Level(eV)
# NKPTS & NBANDS: 100  64
# Band-Index:    1
   0.00000    -10.326222
   0.01181    -10.367439
   0.02361    -10.407879
   0.03542    -10.447539
   0.04723    -10.486410
   0.05904    -10.524492
   0.07084    -10.561777
   0.08265    -10.598261
   0.09446    -10.633941
   0.10627    -10.668811
   0.11807    -10.702873
   0.12988    -10.736118
   0.14169    -10.768541
   0.15350    -10.800141
   0.16530    -10.830910
   0.17711    -10.860851
   0.18892    -10.889955
   0.20073    -10.918221
   0.21253    -10.945645
   0.22434    -10.972226
   0.23615    -10.997960
   0.24796    -11.022847
   0.25976    -11.046878
   0.27157    -11.070059
   0.28338    -11.092379
   0.29518    -11.113842
   0.30699    -11.134444
   0.31880    -11.154184
   0.33061    -11.173059
   0.34241    -11.191068
   0.35422    -11.208209
   0.36603    -11.224479
   0.37784    -11.239879
   0.38964    -11.254405
   0.40145    -11.268059
   0.41326    -11.280837
   0.42507    -11.292743
   0.43687    -11.303770
   0.44868    -11.313919
   0.46049    -11.323188
   0.47230    -11.331577
   0.48410    -11.339085
   0.49591    -11.345708
   0.50772    -11.351451
   0.51953    -11.356312
   0.53133    -11.360290
   0.54314    -11.363384
   0.55495    -11.365594
   0.56675    -11.366919
   0.57856    -11.367360
   0.57856    -11.367360
   0.59037    -11.366919
   0.60218    -11.365594
   0.61398    -11.363384
   0.62579    -11.360290
   0.63760    -11.356312
   0.64941    -11.351451
   0.66121    -11.345708
   0.67302    -11.339085
   0.68483    -11.331577
   0.69664    -11.323188
   0.70844    -11.313919
   0.72025    -11.303770
   0.73206    -11.292743
   0.74387    -11.280837
   0.75567    -11.268059
   0.76748    -11.254405
   0.77929    -11.239879
   0.79110    -11.224479
   0.80290    -11.208209
   0.81471    -11.191068
   0.82652    -11.173059
   0.83832    -11.154184
   0.85013    -11.134444
   0.86194    -11.113842
   0.87375    -11.092379
   0.88555    -11.070059
   0.89736    -11.046878
   0.90917    -11.022847
   0.92098    -10.997960
   0.93278    -10.972226
   0.94459    -10.945645
   0.95640    -10.918221
   0.96821    -10.889955
   0.98001    -10.860851
   0.99182    -10.830910
   1.00363    -10.800141
   1.01544    -10.768541
   1.02724    -10.736118
   1.03905    -10.702873
   1.05086    -10.668811
   1.06267    -10.633941
   1.07447    -10.598261
   1.08628    -10.561777
   1.09809    -10.524492
   1.10989    -10.486410
   1.12170    -10.447539
   1.13351    -10.407879
   1.14532    -10.367439
   1.15712    -10.326222
 
# Band-Index:    2
   1.15712    -10.326222
   1.14532    -10.284234
   1.13351    -10.241481
   1.12170    -10.197969
   1.10989    -10.153703
   1.09809    -10.108690
   1.08628    -10.062936
   1.07447    -10.016450
   1.06267     -9.969239
   1.05086     -9.921307
   1.03905     -9.872664
   1.02724     -9.823320
   1.01544     -9.773282
   1.00363     -9.722558
   0.99182     -9.671156
   0.98001     -9.619083
   0.96821     -9.566350
   0.95640     -9.512966
   0.94459     -9.458941
   0.93278     -9.455232
   0.92098     -9.475567
   0.90917     -9.495298
   0.89736     -9.514410
   0.88555     -9.532903
   0.87375     -9.550764
   0.86194     -9.567987
   0.85013     -9.584560
   0.83832     -9.600479
   0.82652     -9.615735
   0.81471     -9.630324
   0.80290     -9.644237
   0.79110     -9.657471
   0.77929     -9.670018
   0.76748     -9.681877
   0.75567     -9.693039
   0.74387     -9.703500
   0.73206     -9.713256
   0.72025     -9.722306
   0.70844     -9.730648
   0.69664     -9.738274
   0.68483     -9.745181
   0.67302     -9.751368
   0.66121     -9.756833
   0.64941     -9.761573
   0.63760     -9.765586
   0.62579     -9.768872
   0.61398     -9.771430
   0.60218     -9.773257
   0.59037     -9.774355
   0.57856     -9.774717
   0.57856     -9.774717
   0.56675     -9.774355
   0.55495     -9.773257
   0.54314     -9.771430
   0.53133     -9.768872
   0.51953     -9.765586
   0.50772     -9.761573
   0.49591     -9.756833
   0.48410     -9.751368
   0.47230     -9.745181
   0.46049     -9.738274
   0.44868     -9.730648
   0.43687     -9.722306
   0.42507     -9.713256
   0.41326     -9.703500
   0.40145     -9.693039
   0.38964     -9.681877
   0.37784     -9.670018
   0.36603     -9.657471
   0.35422     -9.644237
   0.34241     -9.630324
   0.33061     -9.615735
   0.31880     -9.600479
   0.30699     -9.584560
   0.29518     -9.567987
   0.28338     -9.550764
   0.27157     -9.532903
   0.25976     -9.514410
   0.24796     -9.495298
   0.23615     -9.475567
   0.22434     -9.455232
   0.21253     -9.458941
   0.20073     -9.512966
   0.18892     -9.566350
   0.17711     -9.619083
   0.16530     -9.671156
   0.15350     -9.722558
   0.14169     -9.773282
   0.12988     -9.823320
   0.11807     -9.872664
   0.10627     -9.921307
   0.09446     -9.969239
   0.08265    -10.016450
   0.07084    -10.062936
   0.05904    -10.108690
   0.04723    -10.153703
   0.03542    -10.197969
   0.02361    -10.241481
   0.01181    -10.284234
   0.00000    -10.326222
 
# Band-Index:    3
   0.00000     -8.970002
   0.01181     -8.999384
   0.02361     -9.028434
   0.03542     -9.057136
   0.04723     -9.085471
   0.05904     -9.113420
   0.07084     -9.140965
   0.08265     -9.168091
   0.09446     -9.194777
   0.10627     -9.221010
   0.11807     -9.246773
   0.12988     -9.272054
   0.14169     -9.296833
   0.15350     -9.321101
   0.16530     -9.344843
   0.17711     -9.368046
   0.18892     -9.390699
   0.20073     -9.412788
   0.21253     -9.434303
   0.22434     -9.404282
   0.23615     -9.349005
   0.24796     -9.293117
   0.25976     -9.236633
   0.27157     -9.179563
   0.28338     -9.121919
   0.29518     -9.063713
   0.30699     -9.004957
   0.31880     -8.945667
   0.33061     -8.885855
   0.34241     -8.825536
   0.35422     -8.764727
   0.36603     -8.703444
   0.37784     -8.641697
   0.38964     -8.579506
   0.40145     -8.516887
   0.41326     -8.453858
   0.42507     -8.390432
   0.43687     -8.326629
   0.44868     -8.262468
   0.46049     -8.197967
   0.47230     -8.133146
   0.48410     -8.068025
   0.49591     -8.002624
   0.50772     -7.936964
   0.51953     -7.871063
   0.53133     -7.804948
   0.54314     -7.738638
   0.55495     -7.672155
   0.56675     -7.605526
   0.57856     -7.538770
   0.57856     -7.538770
   0.59037     -7.605526
   0.60218     -7.672155
   0.61398     -7.738638
   0.62579     -7.804948
   0.63760     -7.871063
   0.64941     -7.936964
   0.66121     -8.002624
   0.67302     -8.068025
   0.68483     -8.133146
   0.69664     -8.197967
   0.70844     -8.262468
   0.72025     -8.326629
   0.73206     -8.390432
   0.74387     -8.453858
   0.75567     -8.516887
   0.76748     -8.579506
   0.77929     -8.641697
   0.79110     -8.703444
   0.80290     -8.764727
   0.81471     -8.825536
   0.82652     -8.885855
   0.83832     -8.945667
   0.85013     -9.004957
   0.86194     -9.063713
   0.87375     -9.121919
   0.88555     -9.179563
   0.89736     -9.236633
   0.90917     -9.293117
   0.92098     -9.349005
   0.93278     -9.404282
   0.94459     -9.434303
   0.95640     -9.412788
   0.96821     -9.390699
   0.98001     -9.368046
   0.99182     -9.344843
   1.00363     -9.321101
   1.01544     -9.296833
   1.02724     -9.272054
   1.03905     -9.246773
   1.05086     -9.221010
   1.06267     -9.194777
   1.07447     -9.168091
   1.08628     -9.140965
   1.09809     -9.113420
   1.10989     -9.085471
   1.12170     -9.057136
   1.13351     -9.028434
   1.14532     -8.999384
   1.15712     -8.970002
 
# Band-Index:    4
   1.15712     -8.970002
   1.14532     -8.940314
   1.13351     -8.910341
   1.12170     -8.880102
   1.10989     -8.849618
   1.09809     -8.818911
   1.08628     -8.788005
   1.07447     -8.756917
   1.06267     -8.725677
   1.05086     -8.694307
   1.03905     -8.662832
   1.02724     -8.631273
   1.01544     -8.599652
   1.00363     -8.567996
   0.99182     -8.536328
   0.98001     -8.504672
   0.96821     -8.473051
   0.95640     -8.441487
   0.94459     -8.410004
   0.93278     -8.378623
   0.92098     -8.347364
   0.90917     -8.316248
   0.89736     -8.285294
   0.88555     -8.254520
   0.87375     -8.223942
   0.86194     -8.193572
   0.85013     -8.163428
   0.83832     -8.133529
   0.82652     -8.103878
   0.81471     -8.074481
   0.80290     -8.045351
   0.79110     -8.016490
   0.77929     -7.987904
   0.76748     -7.959592
   0.75567     -7.931553
   0.74387     -7.903788
   0.73206     -7.876293
   0.72025     -7.849060
   0.70844     -7.822084
   0.69664     -7.795355
   0.68483     -7.768863
   0.67302     -7.742596
   0.66121     -7.716537
   0.64941     -7.690680
   0.63760     -7.665005
   0.62579     -7.639496
   0.61398     -7.614136
   0.60218     -7.588906
   0.59037     -7.563791
   0.57856     -7.538770
   0.57856     -7.538770
   0.56675     -7.563791
   0.55495     -7.588906
   0.54314     -7.614136
   0.53133     -7.639496
   0.51953     -7.665005
   0.50772     -7.690680
   0.49591     -7.716537
   0.48410     -7.742596
   0.47230     -7.768863
   0.46049     -7.795355
   0.44868     -7.822084
   0.43687     -7.849060
   0.42507     -7.876293
   0.41326     -7.903788
   0.40145     -7.931553
   0.38964     -7.959592
   0.37784     -7.987904
   0.36603     -8.016490
   0.35422     -8.045351
   0.34241     -8.074481
   0.33061     -8.103878
   0.31880     -8.133529
   0.30699     -8.163428
   0.29518     -8.193572
   0.28338     -8.223942
   0.27157     -8.254520
   0.25976     -8.285294
   0.24796     -8.316248
   0.23615     -8.347364
   0.22434     -8.378623
   0.21253     -8.410004
   0.20073     -8.441487
   0.18892     -8.473051
   0.17711     -8.504672
   0.16530     -8.536328
   0.15350     -8.567996
   0.14169     -8.599652
   0.12988     -8.631273
   0.11807     -8.662832
   0.10627     -8.694307
   0.09446     -8.725677
   0.08265     -8.756917
   0.07084     -8.788005
   0.05904     -8.818911
   0.04723     -8.849618
   0.03542     -8.880102
   0.02361     -8.910341
   0.01181     -8.940314
   0.00000     -8.970002
 
# Band-Index:    5
   0.00000     -6.135441
   0.01181     -6.169205
   0.02361     -6.202876
   0.03542     -6.236433
   0.04723     -6.269855
   0.05904     -6.303126
   0.07084     -6.336234
   0.08265     -6.369147
   0.09446     -6.401866
   0.10627     -6.434372
   0.11807     -6.466654
   0.12988     -6.498700
   0.14169     -6.530500
   0.15350     -6.562054
   0.16530     -6.593341
   0.17711     -6.624362
   0.18892     -6.655105
   0.20073     -6.685572
   0.21253     -6.715758
   0.22434     -6.745662
   0.23615     -6.775282
   0.24796     -6.804616
   0.25976     -6.833667
   0.27157     -6.862437
   0.28338     -6.890926
   0.29518     -6.919141
   0.30699     -6.947081
   0.31880     -6.974756
   0.33061     -7.002177
   0.34241     -7.029343
   0.35422     -7.056265
   0.36603     -7.082955
   0.37784     -7.109421
   0.38964     -7.135676
   0.40145     -7.161729
   0.41326     -7.187595
   0.42507     -7.213286
   0.43687     -7.238816
   0.44868     -7.264202
   0.46049     -7.289458
   0.47230     -7.314602
   0.48410     -7.339649
   0.49591     -7.364617
   0.50772     -7.389523
   0.51953     -7.414392
   0.53133     -7.439237
   0.54314     -7.464077
   0.55495     -7.488932
   0.56675     -7.513824
   0.57856     -7.538770
   0.57856     -7.538770
   0.59037     -7.513824
   0.60218     -7.488932
   0.61398     -7.464077
   0.62579     -7.439237
   0.63760     -7.414392
   0.64941     -7.389523
   0.66121     -7.364617
   0.67302     -7.339649
   0.68483     -7.314602
   0.69664     -7.289458
   0.70844     -7.264202
   0.72025     -7.238816
   0.73206     -7.213286
   0.74387     -7.187595
   0.75567     -7.161729
   0.76748     -7.135676
   0.77929     -7.109421
   0.79110     -7.082955
   0.80290     -7.056265
   0.81471     -7.029343
   0.82652     -7.002177
   0.83832     -6.974756
   0.85013     -6.947081
   0.86194     -6.919141
   0.87375     -6.890926
   0.88555     -6.862437
   0.89736     -6.833667
   0.90917     -6.804616
   0.92098     -6.775282
   0.93278     -6.745662
   0.94459     -6.715758
   0.95640     -6.685572
   0.96821     -6.655105
   0.98001     -6.624362
   0.99182     -6.593341
   1.00363     -6.562054
   1.01544     -6.530500
   1.02724     -6.498700
   1.03905     -6.466654
   1.05086     -6.434372
   1.06267     -6.401866
   1.07447     -6.369147
   1.08628     -6.336234
   1.09809     -6.303126
   1.10989     -6.269855
   1.12170     -6.236433
   1.13351     -6.202876
   1.14532     -6.169205
   1.15712     -6.135441
 
# Band-Index:    6
   1.15712     -6.135441
   1.14532     -6.101605
   1.13351     -6.067720
   1.12170     -6.033813
   1.10989     -5.999907
   1.09809     -5.966031
   1.08628     -5.932210
   1.07447     -5.898480
   1.06267     -5.864869
   1.05086     -5.831410
   1.03905     -5.798138
   1.02724     -5.765086
   1.01544     -5.732288
   1.00363     -5.699782
   0.99182     -5.667605
   0.98001     -5.635796
   0.96821     -5.604394
   0.95640     -5.573437
   0.94459     -5.542966
   0.93278     -5.575024
   0.92098     -5.637362
   0.90917     -5.699949
   0.89736     -5.762791
   0.88555     -5.825894
   0.87375     -5.889262
   0.86194     -5.952896
   0.85013     -6.016797
   0.83832     -6.080963
   0.82652     -6.145393
   0.81471     -6.210081
   0.80290     -6.275022
   0.79110     -6.340207
   0.77929     -6.405627
   0.76748     -6.471272
   0.75567     -6.537130
   0.74387     -6.603192
   0.73206     -6.669436
   0.72025     -6.735848
   0.70844     -6.802410
   0.69664     -6.869103
   0.68483     -6.935909
   0.67302     -7.002805
   0.66121     -7.069776
   0.64941     -7.136800
   0.63760     -7.203851
   0.62579     -7.270912
   0.61398     -7.337957
   0.60218     -7.404963
   0.59037     -7.471908
   0.57856     -7.538770
   0.57856     -7.538770
   0.56675     -7.471908
   0.55495     -7.404963
   0.54314     -7.337957
   0.53133     -7.270912
   0.51953     -7.203851
   0.50772     -7.136800
   0.49591     -7.069776
   0.48410     -7.002805
   0.47230     -6.935909
   0.46049     -6.869103
   0.44868     -6.802410
   0.43687     -6.735848
   0.42507     -6.669436
   0.41326     -6.603192
   0.40145     -6.537130
   0.38964     -6.471272
   0.37784     -6.405627
   0.36603     -6.340207
   0.35422     -6.275022
   0.34241     -6.210081
   0.33061     -6.145393
   0.31880     -6.080963
   0.30699     -6.016797
   0.29518     -5.952896
   0.28338     -5.889262
   0.27157     -5.825894
   0.25976     -5.762791
   0.24796     -5.699949
   0.23615     -5.637362
   0.22434     -5.575024
   0.21253     -5.542966
   0.20073     -5.573437
   0.18892     -5.604394
   0.17711     -5.635796
   0.16530     -5.667605
   0.15350     -5.699782
   0.14169     -5.732288
   0.12988     -5.765086
   0.11807     -5.798138
   0.10627     -5.831410
   0.09446     -5.864869
   0.08265     -5.898480
   0.07084     -5.932210
   0.05904     -5.966031
   0.04723     -5.999907
   0.03542     -6.033813
   0.02361     -6.067720
   0.01181     -6.101605
   0.00000     -6.135441
 
# Band-Index:    7
   0.00000     -4.421500
   0.01181     -4.481603
   0.02361     -4.541687
   0.03542     -4.601766
   0.04723     -4.661852
   0.05904     -4.721963
   0.07084     -4.782116
   0.08265     -4.842326
   0.09446     -4.902612
   0.10627     -4.962984
   0.11807     -5.023461
   0.12988     -5.084060
   0.14169     -5.144796
   0.15350     -5.205684
   0.16530     -5.266741
   0.17711     -5.327979
   0.18892     -5.389413
   0.20073     -5.451060
   0.21253     -5.512926
   0.22434     -5.513021
   0.23615     -5.483643
   0.24796     -5.454872
   0.25976     -5.426744
   0.27157     -5.399306
   0.28338     -5.372593
   0.29518     -5.346646
   0.30699     -5.321496
   0.31880     -5.297186
   0.33061     -5.273741
   0.34241     -5.251201
   0.35422     -5.229591
   0.36603     -5.208943
   0.37784     -5.189284
   0.38964     -5.170639
   0.40145     -5.153030
   0.41326     -5.136477
   0.42507     -5.120999
   0.43687     -5.106615
   0.44868     -5.093341
   0.46049     -5.081186
   0.47230     -5.070161
   0.48410     -5.060275
   0.49591     -5.051540
   0.50772     -5.043955
   0.51953     -5.037524
   0.53133     -5.032262
   0.54314     -5.028169
   0.55495     -5.025241
   0.56675     -5.023485
   0.57856     -5.022897
   0.57856     -5.022897
   0.59037     -5.023485
   0.60218     -5.025241
   0.61398     -5.028169
   0.62579     -5.032262
   0.63760     -5.037524
   0.64941     -5.043955
   0.66121     -5.051540
   0.67302     -5.060275
   0.68483     -5.070161
   0.69664     -5.081186
   0.70844     -5.093341
   0.72025     -5.106615
   0.73206     -5.120999
   0.74387     -5.136477
   0.75567     -5.153030
   0.76748     -5.170639
   0.77929     -5.189284
   0.79110     -5.208943
   0.80290     -5.229591
   0.81471     -5.251201
   0.82652     -5.273741
   0.83832     -5.297186
   0.85013     -5.321496
   0.86194     -5.346646
   0.87375     -5.372593
   0.88555     -5.399306
   0.89736     -5.426744
   0.90917     -5.454872
   0.92098     -5.483643
   0.93278     -5.513021
   0.94459     -5.512926
   0.95640     -5.451060
   0.96821     -5.389413
   0.98001     -5.327979
   0.99182     -5.266741
   1.00363     -5.205684
   1.01544     -5.144796
   1.02724     -5.084060
   1.03905     -5.023461
   1.05086     -4.962984
   1.06267     -4.902612
   1.07447     -4.842326
   1.08628     -4.782116
   1.09809     -4.721963
   1.10989     -4.661852
   1.12170     -4.601766
   1.13351     -4.541687
   1.14532     -4.481603
   1.15712     -4.421500
 
# Band-Index:    8
   1.15712     -4.421500
   1.14532     -4.361363
   1.13351     -4.301183
   1.12170     -4.240944
   1.10989     -4.180635
   1.09809     -4.124247
   1.08628     -4.143019
   1.07447     -4.160382
   1.06267     -4.176310
   1.05086     -4.190775
   1.03905     -4.203755
   1.02724     -4.215222
   1.01544     -4.225153
   1.00363     -4.233525
   0.99182     -4.240314
   0.98001     -4.245499
   0.96821     -4.249059
   0.95640     -4.250975
   0.94459     -4.251228
   0.93278     -4.249799
   0.92098     -4.246673
   0.90917     -4.241835
   0.89736     -4.235273
   0.88555     -4.226976
   0.87375     -4.216935
   0.86194     -4.205143
   0.85013     -4.191595
   0.83832     -4.176293
   0.82652     -4.159233
   0.81471     -4.140419
   0.80290     -4.119857
   0.79110     -4.097555
   0.77929     -4.073525
   0.76748     -4.047782
   0.75567     -4.020341
   0.74387     -3.991226
   0.73206     -3.960460
   0.72025     -3.928069
   0.70844     -3.894084
   0.69664     -3.858539
   0.68483     -3.821472
   0.67302     -3.782922
   0.66121     -3.742933
   0.64941     -3.701553
   0.63760     -3.658833
   0.62579     -3.614827
   0.61398     -3.569593
   0.60218     -3.523194
   0.59037     -3.475695
   0.57856     -3.427169
   0.57856     -3.427169
   0.56675     -3.475695
   0.55495     -3.523194
   0.54314     -3.569593
   0.53133     -3.614827
   0.51953     -3.658833
   0.50772     -3.701553
   0.49591     -3.742933
   0.48410     -3.782922
   0.47230     -3.821472
   0.46049     -3.858539
   0.44868     -3.894084
   0.43687     -3.928069
   0.42507     -3.960460
   0.41326     -3.991226
   0.40145     -4.020341
   0.38964     -4.047782
   0.37784     -4.073525
   0.36603     -4.097555
   0.35422     -4.119857
   0.34241     -4.140419
   0.33061     -4.159233
   0.31880     -4.176293
   0.30699     -4.191595
   0.29518     -4.205143
   0.28338     -4.216935
   0.27157     -4.226976
   0.25976     -4.235273
   0.24796     -4.241835
   0.23615     -4.246673
   0.22434     -4.249799
   0.21253     -4.251228
   0.20073     -4.250975
   0.18892     -4.249059
   0.17711     -4.245499
   0.16530     -4.240314
   0.15350     -4.233525
   0.14169     -4.225153
   0.12988     -4.215222
   0.11807     -4.203755
   0.10627     -4.190775
   0.09446     -4.176310
   0.08265     -4.160382
   0.07084     -4.143019
   0.05904     -4.124247
   0.04723     -4.180635
   0.03542     -4.240944
   0.02361     -4.301183
   0.01181     -4.361363
   0.00000     -4.421500
 
# Band-Index:    9
   0.00000     -4.010187
   0.01181     -4.035600
   0.02361     -4.059741
   0.03542     -4.082580
   0.04723     -4.104092
   0.05904     -4.120247
   0.07084     -4.059769
   0.08265     -3.999194
   0.09446     -3.938513
   0.10627     -3.877721
   0.11807     -3.816813
   0.12988     -3.755785
   0.14169     -3.694635
   0.15350     -3.633361
   0.16530     -3.571964
   0.17711     -3.510447
   0.18892     -3.455780
   0.20073     -3.413703
   0.21253     -3.371008
   0.22434     -3.369888
   0.23615     -3.388210
   0.24796     -3.405496
   0.25976     -3.421742
   0.27157     -3.436936
   0.28338     -3.451067
   0.29518     -3.464125
   0.30699     -3.476100
   0.31880     -3.486980
   0.33061     -3.496757
   0.34241     -3.505418
   0.35422     -3.512954
   0.36603     -3.519353
   0.37784     -3.524604
   0.38964     -3.528698
   0.40145     -3.531622
   0.41326     -3.533366
   0.42507     -3.533916
   0.43687     -3.533263
   0.44868     -3.531394
   0.46049     -3.528296
   0.47230     -3.523959
   0.48410     -3.518369
   0.49591     -3.511517
   0.50772     -3.503388
   0.51953     -3.493972
   0.53133     -3.483257
   0.54314     -3.471230
   0.55495     -3.457880
   0.56675     -3.443197
   0.57856     -3.427169
   0.57856     -3.427169
   0.59037     -3.443197
   0.60218     -3.457880
   0.61398     -3.471230
   0.62579     -3.483257
   0.63760     -3.493972
   0.64941     -3.503388
   0.66121     -3.511517
   0.67302     -3.518369
   0.68483     -3.523959
   0.69664     -3.528296
   0.70844     -3.531394
   0.72025     -3.533263
   0.73206     -3.533916
   0.74387     -3.533366
   0.75567     -3.531622
   0.76748     -3.528698
   0.77929     -3.524604
   0.79110     -3.519353
   0.80290     -3.512954
   0.81471     -3.505418
   0.82652     -3.496757
   0.83832     -3.486980
   0.85013     -3.476100
   0.86194     -3.464125
   0.87375     -3.451067
   0.88555     -3.436936
   0.89736     -3.421742
   0.90917     -3.405496
   0.92098     -3.388210
   0.93278     -3.369888
   0.94459     -3.371008
   0.95640     -3.413703
   0.96821     -3.455780
   0.98001     -3.510447
   0.99182     -3.571964
   1.00363     -3.633361
   1.01544     -3.694635
   1.02724     -3.755785
   1.03905     -3.816813
   1.05086     -3.877721
   1.06267     -3.938513
   1.07447     -3.999194
   1.08628     -4.059769
   1.09809     -4.120247
   1.10989     -4.104092
   1.12170     -4.082580
   1.13351     -4.059741
   1.14532     -4.035600
   1.15712     -4.010187
 
# Band-Index:   10
   1.15712     -4.010187
   1.14532     -3.983533
   1.13351     -3.955661
   1.12170     -3.926603
   1.10989     -3.896390
   1.09809     -3.865052
   1.08628     -3.832622
   1.07447     -3.799129
   1.06267     -3.764607
   1.05086     -3.729093
   1.03905     -3.692620
   1.02724     -3.655225
   1.01544     -3.616943
   1.00363     -3.577816
   0.99182     -3.537883
   0.98001     -3.497190
   0.96821     -3.448812
   0.95640     -3.387064
   0.94459     -3.350547
   0.93278     -3.327748
   0.92098     -3.283986
   0.90917     -3.239781
   0.89736     -3.195196
   0.88555     -3.150309
   0.87375     -3.105195
   0.86194     -3.059937
   0.85013     -3.014623
   0.83832     -2.969347
   0.82652     -2.924222
   0.81471     -2.879360
   0.80290     -2.857245
   0.79110     -2.899898
   0.77929     -2.941178
   0.76748     -2.981070
   0.75567     -3.019561
   0.74387     -3.056647
   0.73206     -3.092317
   0.72025     -3.126566
   0.70844     -3.159391
   0.69664     -3.190791
   0.68483     -3.220766
   0.67302     -3.249317
   0.66121     -3.276450
   0.64941     -3.302172
   0.63760     -3.326482
   0.62579     -3.349391
   0.61398     -3.370904
   0.60218     -3.391032
   0.59037     -3.409784
   0.57856     -3.427169
   0.57856     -3.427169
   0.56675     -3.409784
   0.55495     -3.391032
   0.54314     -3.370904
   0.53133     -3.349391
   0.51953     -3.326482
   0.50772     -3.302172
   0.49591     -3.276450
   0.48410     -3.249317
   0.47230     -3.220766
   0.46049     -3.190791
   0.44868     -3.159391
   0.43687     -3.126566
   0.42507     -3.092317
   0.41326     -3.056647
   0.40145     -3.019561
   0.38964     -2.981070
   0.37784     -2.941178
   0.36603     -2.899898
   0.35422     -2.857245
   0.34241     -2.879360
   0.33061     -2.924222
   0.31880     -2.969347
   0.30699     -3.014623
   0.29518     -3.059937
   0.28338     -3.105195
   0.27157     -3.150309
   0.25976     -3.195196
   0.24796     -3.239781
   0.23615     -3.283986
   0.22434     -3.327748
   0.21253     -3.350547
   0.20073     -3.387064
   0.18892     -3.448812
   0.17711     -3.497190
   0.16530     -3.537883
   0.15350     -3.577816
   0.14169     -3.616943
   0.12988     -3.655225
   0.11807     -3.692620
   0.10627     -3.729093
   0.09446     -3.764607
   0.08265     -3.799129
   0.07084     -3.832622
   0.05904     -3.865052
   0.04723     -3.896390
   0.03542     -3.926603
   0.02361     -3.955661
   0.01181     -3.983533
   0.00000     -4.010187
 
# Band-Index:   11
   0.00000     -2.839309
   0.01181     -2.875248
   0.02361     -2.910365
   0.03542     -2.944648
   0.04723     -2.978083
   0.05904     -3.010657
   0.07084     -3.042357
   0.08265     -3.073172
   0.09446     -3.103091
   0.10627     -3.132101
   0.11807     -3.160191
   0.12988     -3.187354
   0.14169     -3.213573
   0.15350     -3.238841
   0.16530     -3.263147
   0.17711     -3.286480
   0.18892     -3.308832
   0.20073     -3.330191
   0.21253     -3.325209
   0.22434     -3.263258
   0.23615     -3.201221
   0.24796     -3.139110
   0.25976     -3.076929
   0.27157     -3.014722
   0.28338     -2.952482
   0.29518     -2.890259
   0.30699     -2.828069
   0.31880     -2.765945
   0.33061     -2.767891
   0.34241     -2.813238
   0.35422     -2.834883
   0.36603     -2.790926
   0.37784     -2.747634
   0.38964     -2.705166
   0.40145     -2.663686
   0.41326     -2.689910
   0.42507     -2.742813
   0.43687     -2.796199
   0.44868     -2.849918
   0.46049     -2.903831
   0.47230     -2.957804
   0.48410     -3.011708
   0.49591     -3.065421
   0.50772     -3.118830
   0.51953     -3.171826
   0.53133     -3.224305
   0.54314     -3.276169
   0.55495     -3.327324
   0.56675     -3.377685
   0.57856     -3.427169
   0.57856     -3.427169
   0.59037     -3.377685
   0.60218     -3.327324
   0.61398     -3.276169
   0.62579     -3.224305
   0.63760     -3.171826
   0.64941     -3.118830
   0.66121     -3.065421
   0.67302     -3.011708
   0.68483     -2.957804
   0.69664     -2.903831
   0.70844     -2.849918
   0.72025     -2.796199
   0.73206     -2.742813
   0.74387     -2.689910
   0.75567     -2.663686
   0.76748     -2.705166
   0.77929     -2.747634
   0.79110     -2.790926
   0.80290     -2.834883
   0.81471     -2.813238
   0.82652     -2.767891
   0.83832     -2.765945
   0.85013     -2.828069
   0.86194     -2.890259
   0.87375     -2.952482
   0.88555     -3.014722
   0.89736     -3.076929
   0.90917     -3.139110
   0.92098     -3.201221
   0.93278     -3.263258
   0.94459     -3.325209
   0.95640     -3.330191
   0.96821     -3.308832
   0.98001     -3.286480
   0.99182     -3.263147
   1.00363     -3.238841
   1.01544     -3.213573
   1.02724     -3.187354
   1.03905     -3.160191
   1.05086     -3.132101
   1.06267     -3.103091
   1.07447     -3.073172
   1.08628     -3.042357
   1.09809     -3.010657
   1.10989     -2.978083
   1.12170     -2.944648
   1.13351     -2.910365
   1.14532     -2.875248
   1.15712     -2.839309
 
# Band-Index:   12
   1.15712     -2.839309
   1.14532     -2.802563
   1.13351     -2.765024
   1.12170     -2.726709
   1.10989     -2.687634
   1.09809     -2.647816
   1.08628     -2.607273
   1.07447     -2.566025
   1.06267     -2.524091
   1.05086     -2.481494
   1.03905     -2.438258
   1.02724     -2.394403
   1.01544     -2.349959
   1.00363     -2.304952
   0.99182     -2.259411
   0.98001     -2.232788
   0.96821     -2.243511
   0.95640     -2.253606
   0.94459     -2.263044
   0.93278     -2.304276
   0.92098     -2.360286
   0.90917     -2.415270
   0.89736     -2.469183
   0.88555     -2.521979
   0.87375     -2.573620
   0.86194     -2.624064
   0.85013     -2.673278
   0.83832     -2.721229
   0.82652     -2.703924
   0.81471     -2.642049
   0.80290     -2.580370
   0.79110     -2.518942
   0.77929     -2.535656
   0.76748     -2.586169
   0.75567     -2.637642
   0.74387     -2.623376
   0.73206     -2.584431
   0.72025     -2.547056
   0.70844     -2.511465
   0.69664     -2.477884
   0.68483     -2.446541
   0.67302     -2.417672
   0.66121     -2.391509
   0.64941     -2.368280
   0.63760     -2.348199
   0.62579     -2.331468
   0.61398     -2.318260
   0.60218     -2.308717
   0.59037     -2.302947
   0.57856     -2.301012
   0.57856     -2.301012
   0.56675     -2.302947
   0.55495     -2.308717
   0.54314     -2.318260
   0.53133     -2.331468
   0.51953     -2.348199
   0.50772     -2.368280
   0.49591     -2.391509
   0.48410     -2.417672
   0.47230     -2.446541
   0.46049     -2.477884
   0.44868     -2.511465
   0.43687     -2.547056
   0.42507     -2.584431
   0.41326     -2.623376
   0.40145     -2.637642
   0.38964     -2.586169
   0.37784     -2.535656
   0.36603     -2.518942
   0.35422     -2.580370
   0.34241     -2.642049
   0.33061     -2.703924
   0.31880     -2.721229
   0.30699     -2.673278
   0.29518     -2.624064
   0.28338     -2.573620
   0.27157     -2.521979
   0.25976     -2.469183
   0.24796     -2.415270
   0.23615     -2.360286
   0.22434     -2.304276
   0.21253     -2.263044
   0.20073     -2.253606
   0.18892     -2.243511
   0.17711     -2.232788
   0.16530     -2.259411
   0.15350     -2.304952
   0.14169     -2.349959
   0.12988     -2.394403
   0.11807     -2.438258
   0.10627     -2.481494
   0.09446     -2.524091
   0.08265     -2.566025
   0.07084     -2.607273
   0.05904     -2.647816
   0.04723     -2.687634
   0.03542     -2.726709
   0.02361     -2.765024
   0.01181     -2.802563
   0.00000     -2.839309
 
# Band-Index:   13
   0.00000     -2.030904
   0.01181     -2.044239
   0.02361     -2.057991
   0.03542     -2.072051
   0.04723     -2.086314
   0.05904     -2.100681
   0.07084     -2.115058
   0.08265     -2.129363
   0.09446     -2.143516
   0.10627     -2.157442
   0.11807     -2.171073
   0.12988     -2.184347
   0.14169     -2.197204
   0.15350     -2.209595
   0.16530     -2.221469
   0.17711     -2.213378
   0.18892     -2.166878
   0.20073     -2.189394
   0.21253     -2.247295
   0.22434     -2.271801
   0.23615     -2.279861
   0.24796     -2.287211
   0.25976     -2.293838
   0.27157     -2.299746
   0.28338     -2.304933
   0.29518     -2.309411
   0.30699     -2.313187
   0.31880     -2.316281
   0.33061     -2.346639
   0.34241     -2.391592
   0.35422     -2.438194
   0.36603     -2.486273
   0.37784     -2.457840
   0.38964     -2.397128
   0.40145     -2.336917
   0.41326     -2.320432
   0.42507     -2.319059
   0.43687     -2.317455
   0.44868     -2.315681
   0.46049     -2.313799
   0.47230     -2.311870
   0.48410     -2.309954
   0.49591     -2.308109
   0.50772     -2.306390
   0.51953     -2.304844
   0.53133     -2.303518
   0.54314     -2.302446
   0.55495     -2.301659
   0.56675     -2.301178
   0.57856     -2.301012
   0.57856     -2.301012
   0.59037     -2.301178
   0.60218     -2.301659
   0.61398     -2.302446
   0.62579     -2.303518
   0.63760     -2.304844
   0.64941     -2.306390
   0.66121     -2.308109
   0.67302     -2.309954
   0.68483     -2.311870
   0.69664     -2.313799
   0.70844     -2.315681
   0.72025     -2.317455
   0.73206     -2.319059
   0.74387     -2.320432
   0.75567     -2.336917
   0.76748     -2.397128
   0.77929     -2.457840
   0.79110     -2.486273
   0.80290     -2.438194
   0.81471     -2.391592
   0.82652     -2.346639
   0.83832     -2.316281
   0.85013     -2.313187
   0.86194     -2.309411
   0.87375     -2.304933
   0.88555     -2.299746
   0.89736     -2.293838
   0.90917     -2.287211
   0.92098     -2.279861
   0.93278     -2.271801
   0.94459     -2.247295
   0.95640     -2.189394
   0.96821     -2.166878
   0.98001     -2.213378
   0.99182     -2.221469
   1.00363     -2.209595
   1.01544     -2.197204
   1.02724     -2.184347
   1.03905     -2.171073
   1.05086     -2.157442
   1.06267     -2.143516
   1.07447     -2.129363
   1.08628     -2.115058
   1.09809     -2.100681
   1.10989     -2.086314
   1.12170     -2.072051
   1.13351     -2.057991
   1.14532     -2.044239
   1.15712     -2.030904
 
# Band-Index:   14
   1.15712     -2.030904
   1.14532     -2.018109
   1.13351     -2.005979
   1.12170     -1.994646
   1.10989     -1.984249
   1.09809     -1.974934
   1.08628     -1.966850
   1.07447     -1.960148
   1.06267     -1.954995
   1.05086     -1.951545
   1.03905     -1.949955
   1.02724     -1.950381
   1.01544     -1.952971
   1.00363     -1.957868
   0.99182     -2.010792
   0.98001     -2.071079
   0.96821     -2.130634
   0.95640     -2.119950
   0.94459     -2.072635
   0.93278     -2.041631
   0.92098     -2.065225
   0.90917     -2.091588
   0.89736     -2.120670
   0.88555     -2.152398
   0.87375     -2.186671
   0.86194     -2.223371
   0.85013     -2.262365
   0.83832     -2.303508
   0.82652     -2.318718
   0.81471     -2.320527
   0.80290     -2.321740
   0.79110     -2.322399
   0.77929     -2.322547
   0.76748     -2.322234
   0.75567     -2.321510
   0.74387     -2.277311
   0.73206     -2.218451
   0.72025     -2.160489
   0.70844     -2.103630
   0.69664     -2.048124
   0.68483     -1.994282
   0.67302     -1.942502
   0.66121     -1.893287
   0.64941     -1.847276
   0.63760     -1.805282
   0.62579     -1.768306
   0.61398     -1.737522
   0.60218     -1.714220
   0.59037     -1.699626
   0.57856     -1.694648
   0.57856     -1.694648
   0.56675     -1.699626
   0.55495     -1.714220
   0.54314     -1.737522
   0.53133     -1.768306
   0.51953     -1.805282
   0.50772     -1.847276
   0.49591     -1.893287
   0.48410     -1.942502
   0.47230     -1.994282
   0.46049     -2.048124
   0.44868     -2.103630
   0.43687     -2.160489
   0.42507     -2.218451
   0.41326     -2.277311
   0.40145     -2.321510
   0.38964     -2.322234
   0.37784     -2.322547
   0.36603     -2.322399
   0.35422     -2.321740
   0.34241     -2.320527
   0.33061     -2.318718
   0.31880     -2.303508
   0.30699     -2.262365
   0.29518     -2.223371
   0.28338     -2.186671
   0.27157     -2.152398
   0.25976     -2.120670
   0.24796     -2.091588
   0.23615     -2.065225
   0.22434     -2.041631
   0.21253     -2.072635
   0.20073     -2.119950
   0.18892     -2.130634
   0.17711     -2.071079
   0.16530     -2.010792
   0.15350     -1.957868
   0.14169     -1.952971
   0.12988     -1.950381
   0.11807     -1.949955
   0.10627     -1.951545
   0.09446     -1.954995
   0.08265     -1.960148
   0.07084     -1.966850
   0.05904     -1.974934
   0.04723     -1.984249
   0.03542     -1.994646
   0.02361     -2.005979
   0.01181     -2.018109
   0.00000     -2.030904
 
# Band-Index:   15
   0.00000     -1.136488
   0.01181     -1.197771
   0.02361     -1.259702
   0.03542     -1.322148
   0.04723     -1.384977
   0.05904     -1.448079
   0.07084     -1.511335
   0.08265     -1.574635
   0.09446     -1.637875
   0.10627     -1.700954
   0.11807     -1.763777
   0.12988     -1.826259
   0.14169     -1.888305
   0.15350     -1.949843
   0.16530     -1.965199
   0.17711     -1.975076
   0.18892     -1.987595
   0.20073     -2.002831
   0.21253     -2.020833
   0.22434     -2.024978
   0.23615     -1.977027
   0.24796     -1.928840
   0.25976     -1.880459
   0.27157     -1.831955
   0.28338     -1.783393
   0.29518     -1.734850
   0.30699     -1.686405
   0.31880     -1.638147
   0.33061     -1.590172
   0.34241     -1.542586
   0.35422     -1.495507
   0.36603     -1.449058
   0.37784     -1.403382
   0.38964     -1.358624
   0.40145     -1.314955
   0.41326     -1.272550
   0.42507     -1.231601
   0.43687     -1.192311
   0.44868     -1.154900
   0.46049     -1.119595
   0.47230     -1.086634
   0.48410     -1.056261
   0.49591     -1.028721
   0.50772     -1.004255
   0.51953     -0.983095
   0.53133     -0.965454
   0.54314     -0.951521
   0.55495     -0.941451
   0.56675     -0.935354
   0.57856     -0.933316
   0.57856     -0.933316
   0.59037     -0.935354
   0.60218     -0.941451
   0.61398     -0.951521
   0.62579     -0.965454
   0.63760     -0.983095
   0.64941     -1.004255
   0.66121     -1.028721
   0.67302     -1.056261
   0.68483     -1.086634
   0.69664     -1.119595
   0.70844     -1.154900
   0.72025     -1.192311
   0.73206     -1.231601
   0.74387     -1.272550
   0.75567     -1.314955
   0.76748     -1.358624
   0.77929     -1.403382
   0.79110     -1.449058
   0.80290     -1.495507
   0.81471     -1.542586
   0.82652     -1.590172
   0.83832     -1.638147
   0.85013     -1.686405
   0.86194     -1.734850
   0.87375     -1.783393
   0.88555     -1.831955
   0.89736     -1.880459
   0.90917     -1.928840
   0.92098     -1.977027
   0.93278     -2.024978
   0.94459     -2.020833
   0.95640     -2.002831
   0.96821     -1.987595
   0.98001     -1.975076
   0.99182     -1.965199
   1.00363     -1.949843
   1.01544     -1.888305
   1.02724     -1.826259
   1.03905     -1.763777
   1.05086     -1.700954
   1.06267     -1.637875
   1.07447     -1.574635
   1.08628     -1.511335
   1.09809     -1.448079
   1.10989     -1.384977
   1.12170     -1.322148
   1.13351     -1.259702
   1.14532     -1.197771
   1.15712     -1.136488
 
# Band-Index:   16
   1.15712     -1.136488
   1.14532     -1.075991
   1.13351     -1.016431
   1.12170     -0.957957
   1.10989     -0.900722
   1.09809     -0.844905
   1.08628     -0.790669
   1.07447     -0.738194
   1.06267     -0.687661
   1.05086     -0.639257
   1.03905     -0.593170
   1.02724     -0.549586
   1.01544     -0.508701
   1.00363     -0.470696
   0.99182     -0.435742
   0.98001     -0.404009
   0.96821     -0.375647
   0.95640     -0.350792
   0.94459     -0.329560
   0.93278     -0.312044
   0.92098     -0.298310
   0.90917     -0.288397
   0.89736     -0.282311
   0.88555     -0.280040
   0.87375     -0.281533
   0.86194     -0.286718
   0.85013     -0.295494
   0.83832     -0.307739
   0.82652     -0.323309
   0.81471     -0.342044
   0.80290     -0.363768
   0.79110     -0.388281
   0.77929     -0.415388
   0.76748     -0.444870
   0.75567     -0.476491
   0.74387     -0.510011
   0.73206     -0.545173
   0.72025     -0.581682
   0.70844     -0.619228
   0.69664     -0.657462
   0.68483     -0.695963
   0.67302     -0.734253
   0.66121     -0.771754
   0.64941     -0.807746
   0.63760     -0.841365
   0.62579     -0.871561
   0.61398     -0.897112
   0.60218     -0.916701
   0.59037     -0.929076
   0.57856     -0.933316
   0.57856     -0.933316
   0.56675     -0.929076
   0.55495     -0.916701
   0.54314     -0.897112
   0.53133     -0.871561
   0.51953     -0.841365
   0.50772     -0.807746
   0.49591     -0.771754
   0.48410     -0.734253
   0.47230     -0.695963
   0.46049     -0.657462
   0.44868     -0.619228
   0.43687     -0.581682
   0.42507     -0.545173
   0.41326     -0.510011
   0.40145     -0.476491
   0.38964     -0.444870
   0.37784     -0.415388
   0.36603     -0.388281
   0.35422     -0.363768
   0.34241     -0.342044
   0.33061     -0.323309
   0.31880     -0.307739
   0.30699     -0.295494
   0.29518     -0.286718
   0.28338     -0.281533
   0.27157     -0.280040
   0.25976     -0.282311
   0.24796     -0.288397
   0.23615     -0.298310
   0.22434     -0.312044
   0.21253     -0.329560
   0.20073     -0.350792
   0.18892     -0.375647
   0.17711     -0.404009
   0.16530     -0.435742
   0.15350     -0.470696
   0.14169     -0.508701
   0.12988     -0.549586
   0.11807     -0.593170
   0.10627     -0.639257
   0.09446     -0.687661
   0.08265     -0.738194
   0.07084     -0.790669
   0.05904     -0.844905
   0.04723     -0.900722
   0.03542     -0.957957
   0.02361     -1.016431
   0.01181     -1.075991
   0.00000     -1.136488
 
# Band-Index:   17
   0.00000      2.765110
   0.01181      2.675345
   0.02361      2.587933
   0.03542      2.503045
   0.04723      2.420828
   0.05904      2.341459
   0.07084      2.265103
   0.08265      2.191947
   0.09446      2.122158
   0.10627      2.055914
   0.11807      1.993364
   0.12988      1.934720
   0.14169      1.880136
   0.15350      1.829756
   0.16530      1.783733
   0.17711      1.742195
   0.18892      1.705251
   0.20073      1.672972
   0.21253      1.645449
   0.22434      1.622716
   0.23615      1.604788
   0.24796      1.591664
   0.25976      1.583292
   0.27157      1.579623
   0.28338      1.580572
   0.29518      1.586040
   0.30699      1.595914
   0.31880      1.610039
   0.33061      1.628300
   0.34241      1.650573
   0.35422      1.676650
   0.36603      1.649824
   0.37784      1.574163
   0.38964      1.501173
   0.40145      1.431023
   0.41326      1.363896
   0.42507      1.299976
   0.43687      1.239479
   0.44868      1.182613
   0.46049      1.129604
   0.47230      1.080687
   0.48410      1.036093
   0.49591      0.996036
   0.50772      0.960783
   0.51953      0.930529
   0.53133      0.905474
   0.54314      0.885773
   0.55495      0.871606
   0.56675      0.863058
   0.57856      0.860211
   0.57856      0.860211
   0.59037      0.863058
   0.60218      0.871606
   0.61398      0.885773
   0.62579      0.905474
   0.63760      0.930529
   0.64941      0.960783
   0.66121      0.996036
   0.67302      1.036093
   0.68483      1.080687
   0.69664      1.129604
   0.70844      1.182613
   0.72025      1.239479
   0.73206      1.299976
   0.74387      1.363896
   0.75567      1.431023
   0.76748      1.501173
   0.77929      1.574163
   0.79110      1.649824
   0.80290      1.676650
   0.81471      1.650573
   0.82652      1.628300
   0.83832      1.610039
   0.85013      1.595914
   0.86194      1.586040
   0.87375      1.580572
   0.88555      1.579623
   0.89736      1.583292
   0.90917      1.591664
   0.92098      1.604788
   0.93278      1.622716
   0.94459      1.645449
   0.95640      1.672972
   0.96821      1.705251
   0.98001      1.742195
   0.99182      1.783733
   1.00363      1.829756
   1.01544      1.880136
   1.02724      1.934720
   1.03905      1.993364
   1.05086      2.055914
   1.06267      2.122158
   1.07447      2.191947
   1.08628      2.265103
   1.09809      2.341459
   1.10989      2.420828
   1.12170      2.503045
   1.13351      2.587933
   1.14532      2.675345
   1.15712      2.765110
 
# Band-Index:   18
   1.15712      2.765110
   1.14532      2.857111
   1.13351      2.951098
   1.12170      3.046949
   1.10989      3.081788
   1.09809      3.057041
   1.08628      3.032822
   1.07447      3.009167
   1.06267      2.986100
   1.05086      2.963640
   1.03905      2.941809
   1.02724      2.920612
   1.01544      2.900081
   1.00363      2.880226
   0.99182      2.861063
   0.98001      2.842606
   0.96821      2.824870
   0.95640      2.807869
   0.94459      2.791616
   0.93278      2.719466
   0.92098      2.621140
   0.90917      2.524187
   0.89736      2.428738
   0.88555      2.334832
   0.87375      2.242548
   0.86194      2.151938
   0.85013      2.063154
   0.83832      1.976260
   0.82652      1.891366
   0.81471      1.808545
   0.80290      1.728001
   0.79110      1.706398
   0.77929      1.739655
   0.76748      1.776282
   0.75567      1.816124
   0.74387      1.859034
   0.73206      1.904875
   0.72025      1.953513
   0.70844      2.004821
   0.69664      2.058681
   0.68483      2.114978
   0.67302      2.116311
   0.66121      2.078100
   0.64941      2.044416
   0.63760      2.015434
   0.62579      1.991382
   0.61398      1.972483
   0.60218      1.958850
   0.59037      1.950622
   0.57856      1.947872
   0.57856      1.947872
   0.56675      1.950622
   0.55495      1.958850
   0.54314      1.972483
   0.53133      1.991382
   0.51953      2.015434
   0.50772      2.044416
   0.49591      2.078100
   0.48410      2.116311
   0.47230      2.114978
   0.46049      2.058681
   0.44868      2.004821
   0.43687      1.953513
   0.42507      1.904875
   0.41326      1.859034
   0.40145      1.816124
   0.38964      1.776282
   0.37784      1.739655
   0.36603      1.706398
   0.35422      1.728001
   0.34241      1.808545
   0.33061      1.891366
   0.31880      1.976260
   0.30699      2.063154
   0.29518      2.151938
   0.28338      2.242548
   0.27157      2.334832
   0.25976      2.428738
   0.24796      2.524187
   0.23615      2.621140
   0.22434      2.719466
   0.21253      2.791616
   0.20073      2.807869
   0.18892      2.824870
   0.17711      2.842606
   0.16530      2.861063
   0.15350      2.880226
   0.14169      2.900081
   0.12988      2.920612
   0.11807      2.941809
   0.10627      2.963640
   0.09446      2.986100
   0.08265      3.009167
   0.07084      3.032822
   0.05904      3.057041
   0.04723      3.081788
   0.03542      3.046949
   0.02361      2.951098
   0.01181      2.857111
   0.00000      2.765110
 
# Band-Index:   19
   0.00000      3.185830
   0.01181      3.159124
   0.02361      3.132872
   0.03542      3.107084
   0.04723      3.144490
   0.05904      3.243525
   0.07084      3.343827
   0.08265      3.382290
   0.09446      3.377886
   0.10627      3.349365
   0.11807      3.323474
   0.12988      3.300364
   0.14169      3.280132
   0.15350      3.262981
   0.16530      3.230074
   0.17711      3.125598
   0.18892      3.022246
   0.20073      2.920068
   0.21253      2.819117
   0.22434      2.776141
   0.23615      2.761422
   0.24796      2.747487
   0.25976      2.734349
   0.27157      2.722019
   0.28338      2.710467
   0.29518      2.699784
   0.30699      2.689942
   0.31880      2.680949
   0.33061      2.672818
   0.34241      2.665554
   0.35422      2.659174
   0.36603      2.636261
   0.37784      2.575064
   0.38964      2.516693
   0.40145      2.461279
   0.41326      2.408896
   0.42507      2.359637
   0.43687      2.308979
   0.44868      2.255333
   0.46049      2.205154
   0.47230      2.158738
   0.48410      2.163225
   0.49591      2.134492
   0.50772      2.109453
   0.51953      2.088180
   0.53133      2.070685
   0.54314      2.057022
   0.55495      2.047244
   0.56675      2.041359
   0.57856      2.039403
   0.57856      2.039403
   0.59037      2.041359
   0.60218      2.047244
   0.61398      2.057022
   0.62579      2.070685
   0.63760      2.088180
   0.64941      2.109453
   0.66121      2.134492
   0.67302      2.163225
   0.68483      2.158738
   0.69664      2.205154
   0.70844      2.255333
   0.72025      2.308979
   0.73206      2.359637
   0.74387      2.408896
   0.75567      2.461279
   0.76748      2.516693
   0.77929      2.575064
   0.79110      2.636261
   0.80290      2.659174
   0.81471      2.665554
   0.82652      2.672818
   0.83832      2.680949
   0.85013      2.689942
   0.86194      2.699784
   0.87375      2.710467
   0.88555      2.722019
   0.89736      2.734349
   0.90917      2.747487
   0.92098      2.761422
   0.93278      2.776141
   0.94459      2.819117
   0.95640      2.920068
   0.96821      3.022246
   0.98001      3.125598
   0.99182      3.230074
   1.00363      3.262981
   1.01544      3.280132
   1.02724      3.300364
   1.03905      3.323474
   1.05086      3.349365
   1.06267      3.377886
   1.07447      3.382290
   1.08628      3.343827
   1.09809      3.243525
   1.10989      3.144490
   1.12170      3.107084
   1.13351      3.132872
   1.14532      3.159124
   1.15712      3.185830
 
# Band-Index:   20
   1.15712      3.185830
   1.14532      3.212951
   1.13351      3.240455
   1.12170      3.268305
   1.10989      3.296474
   1.09809      3.324888
   1.08628      3.353515
   1.07447      3.408912
   1.06267      3.411139
   1.05086      3.439968
   1.03905      3.468654
   1.02724      3.497041
   1.01544      3.442199
   1.00363      3.335622
   0.99182      3.249004
   0.98001      3.238294
   0.96821      3.231004
   0.95640      3.227200
   0.94459      3.226955
   0.93278      3.230319
   0.92098      3.237317
   0.90917      3.247939
   0.89736      3.262192
   0.88555      3.216883
   0.87375      3.136403
   0.86194      3.057941
   0.85013      2.981669
   0.83832      2.907650
   0.82652      2.836016
   0.81471      2.766811
   0.80290      2.700210
   0.79110      2.653676
   0.77929      2.621607
   0.76748      2.553863
   0.75567      2.488535
   0.74387      2.425804
   0.73206      2.365879
   0.72025      2.313589
   0.70844      2.270827
   0.69664      2.231459
   0.68483      2.195569
   0.67302      2.173608
   0.66121      2.234491
   0.64941      2.297506
   0.63760      2.362558
   0.62579      2.429576
   0.61398      2.498492
   0.60218      2.569235
   0.59037      2.641795
   0.57856      2.715981
   0.57856      2.715981
   0.56675      2.641795
   0.55495      2.569235
   0.54314      2.498492
   0.53133      2.429576
   0.51953      2.362558
   0.50772      2.297506
   0.49591      2.234491
   0.48410      2.173608
   0.47230      2.195569
   0.46049      2.231459
   0.44868      2.270827
   0.43687      2.313589
   0.42507      2.365879
   0.41326      2.425804
   0.40145      2.488535
   0.38964      2.553863
   0.37784      2.621607
   0.36603      2.653676
   0.35422      2.700210
   0.34241      2.766811
   0.33061      2.836016
   0.31880      2.907650
   0.30699      2.981669
   0.29518      3.057941
   0.28338      3.136403
   0.27157      3.216883
   0.25976      3.262192
   0.24796      3.247939
   0.23615      3.237317
   0.22434      3.230319
   0.21253      3.226955
   0.20073      3.227200
   0.18892      3.231004
   0.17711      3.238294
   0.16530      3.249004
   0.15350      3.335622
   0.14169      3.442199
   0.12988      3.497041
   0.11807      3.468654
   0.10627      3.439968
   0.09446      3.411139
   0.08265      3.408912
   0.07084      3.353515
   0.05904      3.324888
   0.04723      3.296474
   0.03542      3.268305
   0.02361      3.240455
   0.01181      3.212951
   0.00000      3.185830
 
# Band-Index:   21
   0.00000      3.685863
   0.01181      3.640671
   0.02361      3.597186
   0.03542      3.555503
   0.04723      3.515724
   0.05904      3.477955
   0.07084      3.442310
   0.08265      3.445084
   0.09446      3.546860
   0.10627      3.648439
   0.11807      3.658309
   0.12988      3.549785
   0.14169      3.524859
   0.15350      3.551742
   0.16530      3.577081
   0.17711      3.599722
   0.18892      3.617488
   0.20073      3.625989
   0.21253      3.617488
   0.22434      3.556070
   0.23615      3.469138
   0.24796      3.383413
   0.25976      3.299275
   0.27157      3.280015
   0.28338      3.226362
   0.29518      3.146774
   0.30699      3.067730
   0.31880      2.989619
   0.33061      2.912727
   0.34241      2.837282
   0.35422      2.763484
   0.36603      2.691550
   0.37784      2.649076
   0.38964      2.645379
   0.40145      2.642597
   0.41326      2.640735
   0.42507      2.639805
   0.43687      2.639811
   0.44868      2.640766
   0.46049      2.642680
   0.47230      2.645551
   0.48410      2.649401
   0.49591      2.654221
   0.50772      2.660025
   0.51953      2.666827
   0.53133      2.674624
   0.54314      2.683452
   0.55495      2.693271
   0.56675      2.704112
   0.57856      2.715981
   0.57856      2.715981
   0.59037      2.704112
   0.60218      2.693271
   0.61398      2.683452
   0.62579      2.674624
   0.63760      2.666827
   0.64941      2.660025
   0.66121      2.654221
   0.67302      2.649401
   0.68483      2.645551
   0.69664      2.642680
   0.70844      2.640766
   0.72025      2.639811
   0.73206      2.639805
   0.74387      2.640735
   0.75567      2.642597
   0.76748      2.645379
   0.77929      2.649076
   0.79110      2.691550
   0.80290      2.763484
   0.81471      2.837282
   0.82652      2.912727
   0.83832      2.989619
   0.85013      3.067730
   0.86194      3.146774
   0.87375      3.226362
   0.88555      3.280015
   0.89736      3.299275
   0.90917      3.383413
   0.92098      3.469138
   0.93278      3.556070
   0.94459      3.617488
   0.95640      3.625989
   0.96821      3.617488
   0.98001      3.599722
   0.99182      3.577081
   1.00363      3.551742
   1.01544      3.524859
   1.02724      3.549785
   1.03905      3.658309
   1.05086      3.648439
   1.06267      3.546860
   1.07447      3.445084
   1.08628      3.442310
   1.09809      3.477955
   1.10989      3.515724
   1.12170      3.555503
   1.13351      3.597186
   1.14532      3.640671
   1.15712      3.685863
 
# Band-Index:   22
   1.15712      3.685863
   1.14532      3.732673
   1.13351      3.781018
   1.12170      3.830820
   1.10989      3.882000
   1.09809      3.934459
   1.08628      3.988107
   1.07447      3.988979
   1.06267      3.877932
   1.05086      3.767701
   1.03905      3.748441
   1.02724      3.843751
   1.01544      3.926092
   1.00363      3.883126
   0.99182      3.830253
   0.98001      3.778547
   0.96821      3.728025
   0.95640      3.678696
   0.94459      3.630565
   0.93278      3.583636
   0.92098      3.529023
   0.90917      3.459990
   0.89736      3.384385
   0.88555      3.305902
   0.87375      3.301283
   0.86194      3.325914
   0.85013      3.288578
   0.83832      3.251210
   0.82652      3.215005
   0.81471      3.179965
   0.80290      3.146093
   0.79110      3.113380
   0.77929      3.081821
   0.76748      3.051412
   0.75567      3.022179
   0.74387      2.994027
   0.73206      2.967028
   0.72025      2.941151
   0.70844      2.916393
   0.69664      2.892756
   0.68483      2.870214
   0.67302      2.848792
   0.66121      2.828439
   0.64941      2.809155
   0.63760      2.790977
   0.62579      2.773856
   0.61398      2.757835
   0.60218      2.742836
   0.59037      2.728887
   0.57856      2.715981
   0.57856      2.715981
   0.56675      2.728887
   0.55495      2.742836
   0.54314      2.757835
   0.53133      2.773856
   0.51953      2.790977
   0.50772      2.809155
   0.49591      2.828439
   0.48410      2.848792
   0.47230      2.870214
   0.46049      2.892756
   0.44868      2.916393
   0.43687      2.941151
   0.42507      2.967028
   0.41326      2.994027
   0.40145      3.022179
   0.38964      3.051412
   0.37784      3.081821
   0.36603      3.113380
   0.35422      3.146093
   0.34241      3.179965
   0.33061      3.215005
   0.31880      3.251210
   0.30699      3.288578
   0.29518      3.325914
   0.28338      3.301283
   0.27157      3.305902
   0.25976      3.384385
   0.24796      3.459990
   0.23615      3.529023
   0.22434      3.583636
   0.21253      3.630565
   0.20073      3.678696
   0.18892      3.728025
   0.17711      3.778547
   0.16530      3.830253
   0.15350      3.883126
   0.14169      3.926092
   0.12988      3.843751
   0.11807      3.748441
   0.10627      3.767701
   0.09446      3.877932
   0.08265      3.988979
   0.07084      3.988107
   0.05904      3.934459
   0.04723      3.882000
   0.03542      3.830820
   0.02361      3.781018
   0.01181      3.732673
   0.00000      3.685863
 
# Band-Index:   23
   0.00000      4.678204
   0.01181      4.610681
   0.02361      4.544150
   0.03542      4.440250
   0.04723      4.326477
   0.05904      4.213305
   0.07084      4.100783
   0.08265      4.042610
   0.09446      4.096184
   0.10627      4.101985
   0.11807      4.048023
   0.12988      3.992184
   0.14169      3.937131
   0.15350      3.973237
   0.16530      3.958137
   0.17711      3.896723
   0.18892      3.817132
   0.20073      3.731379
   0.21253      3.643767
   0.22434      3.584500
   0.23615      3.537906
   0.24796      3.493381
   0.25976      3.450049
   0.27157      3.407888
   0.28338      3.366901
   0.29518      3.327147
   0.30699      3.353779
   0.31880      3.384725
   0.33061      3.418583
   0.34241      3.455164
   0.35422      3.494237
   0.36603      3.535674
   0.37784      3.579184
   0.38964      3.624552
   0.40145      3.671571
   0.41326      3.719996
   0.42507      3.769589
   0.43687      3.720082
   0.44868      3.629319
   0.46049      3.539722
   0.47230      3.451324
   0.48410      3.364161
   0.49591      3.278201
   0.50772      3.193621
   0.51953      3.110383
   0.53133      3.028541
   0.54314      2.948132
   0.55495      2.869203
   0.56675      2.791802
   0.57856      2.715981
   0.57856      2.715981
   0.59037      2.791802
   0.60218      2.869203
   0.61398      2.948132
   0.62579      3.028541
   0.63760      3.110383
   0.64941      3.193621
   0.66121      3.278201
   0.67302      3.364161
   0.68483      3.451324
   0.69664      3.539722
   0.70844      3.629319
   0.72025      3.720082
   0.73206      3.769589
   0.74387      3.719996
   0.75567      3.671571
   0.76748      3.624552
   0.77929      3.579184
   0.79110      3.535674
   0.80290      3.494237
   0.81471      3.455164
   0.82652      3.418583
   0.83832      3.384725
   0.85013      3.353779
   0.86194      3.327147
   0.87375      3.366901
   0.88555      3.407888
   0.89736      3.450049
   0.90917      3.493381
   0.92098      3.537906
   0.93278      3.584500
   0.94459      3.643767
   0.95640      3.731379
   0.96821      3.817132
   0.98001      3.896723
   0.99182      3.958137
   1.00363      3.973237
   1.01544      3.937131
   1.02724      3.992184
   1.03905      4.048023
   1.05086      4.101985
   1.06267      4.096184
   1.07447      4.042610
   1.08628      4.100783
   1.09809      4.213305
   1.10989      4.326477
   1.12170      4.440250
   1.13351      4.544150
   1.14532      4.610681
   1.15712      4.678204
 
# Band-Index:   24
   1.15712      4.678204
   1.14532      4.669342
   1.13351      4.554562
   1.12170      4.478658
   1.10989      4.414211
   1.09809      4.350937
   1.08628      4.288903
   1.07447      4.228362
   1.06267      4.171088
   1.05086      4.163901
   1.03905      4.218771
   1.02724      4.277730
   1.01544      4.332979
   1.00363      4.274349
   0.99182      4.185107
   0.98001      4.099363
   0.96821      4.019327
   0.95640      3.949378
   0.94459      3.897256
   0.93278      3.870452
   0.92098      3.866973
   0.90917      3.877878
   0.89736      3.896235
   0.88555      3.918364
   0.87375      3.942419
   0.86194      3.967437
   0.85013      3.992857
   0.83832      4.018327
   0.82652      4.043603
   0.81471      4.068507
   0.80290      4.092892
   0.79110      4.116655
   0.77929      4.139663
   0.76748      4.094119
   0.75567      3.999037
   0.74387      3.904974
   0.73206      3.811978
   0.72025      3.820115
   0.70844      3.871333
   0.69664      3.922991
   0.68483      3.974843
   0.67302      4.026615
   0.66121      4.078010
   0.64941      4.128682
   0.63760      4.178172
   0.62579      4.225796
   0.61398      4.270451
   0.60218      4.309873
   0.59037      4.339382
   0.57856      4.350964
   0.57856      4.350964
   0.56675      4.339382
   0.55495      4.309873
   0.54314      4.270451
   0.53133      4.225796
   0.51953      4.178172
   0.50772      4.128682
   0.49591      4.078010
   0.48410      4.026615
   0.47230      3.974843
   0.46049      3.922991
   0.44868      3.871333
   0.43687      3.820115
   0.42507      3.811978
   0.41326      3.904974
   0.40145      3.999037
   0.38964      4.094119
   0.37784      4.139663
   0.36603      4.116655
   0.35422      4.092892
   0.34241      4.068507
   0.33061      4.043603
   0.31880      4.018327
   0.30699      3.992857
   0.29518      3.967437
   0.28338      3.942419
   0.27157      3.918364
   0.25976      3.896235
   0.24796      3.877878
   0.23615      3.866973
   0.22434      3.870452
   0.21253      3.897256
   0.20073      3.949378
   0.18892      4.019327
   0.17711      4.099363
   0.16530      4.185107
   0.15350      4.274349
   0.14169      4.332979
   0.12988      4.277730
   0.11807      4.218771
   0.10627      4.163901
   0.09446      4.171088
   0.08265      4.228362
   0.07084      4.288903
   0.05904      4.350937
   0.04723      4.414211
   0.03542      4.478658
   0.02361      4.554562
   0.01181      4.669342
   0.00000      4.678204
 
# Band-Index:   25
   0.00000      4.784508
   0.01181      4.746671
   0.02361      4.816025
   0.03542      4.886204
   0.04723      4.957157
   0.05904      5.024174
   0.07084      4.914349
   0.08265      4.806419
   0.09446      4.700774
   0.10627      4.598076
   0.11807      4.499643
   0.12988      4.408520
   0.14169      4.338197
   0.15350      4.295214
   0.16530      4.322223
   0.17711      4.398041
   0.18892      4.494502
   0.20073      4.599565
   0.21253      4.708900
   0.22434      4.790771
   0.23615      4.859186
   0.24796      4.928509
   0.25976      4.998689
   0.27157      5.069745
   0.28338      4.990004
   0.29518      4.887504
   0.30699      4.785599
   0.31880      4.684367
   0.33061      4.583841
   0.34241      4.484142
   0.35422      4.385274
   0.36603      4.287291
   0.37784      4.190212
   0.38964      4.161865
   0.40145      4.183153
   0.41326      4.203455
   0.42507      4.222696
   0.43687      4.240809
   0.44868      4.257730
   0.46049      4.273393
   0.47230      4.287750
   0.48410      4.300743
   0.49591      4.312325
   0.50772      4.322460
   0.51953      4.331097
   0.53133      4.338207
   0.54314      4.343773
   0.55495      4.347761
   0.56675      4.350162
   0.57856      4.350964
   0.57856      4.350964
   0.59037      4.350162
   0.60218      4.347761
   0.61398      4.343773
   0.62579      4.338207
   0.63760      4.331097
   0.64941      4.322460
   0.66121      4.312325
   0.67302      4.300743
   0.68483      4.287750
   0.69664      4.273393
   0.70844      4.257730
   0.72025      4.240809
   0.73206      4.222696
   0.74387      4.203455
   0.75567      4.183153
   0.76748      4.161865
   0.77929      4.190212
   0.79110      4.287291
   0.80290      4.385274
   0.81471      4.484142
   0.82652      4.583841
   0.83832      4.684367
   0.85013      4.785599
   0.86194      4.887504
   0.87375      4.990004
   0.88555      5.069745
   0.89736      4.998689
   0.90917      4.928509
   0.92098      4.859186
   0.93278      4.790771
   0.94459      4.708900
   0.95640      4.599565
   0.96821      4.494502
   0.98001      4.398041
   0.99182      4.322223
   1.00363      4.295214
   1.01544      4.338197
   1.02724      4.408520
   1.03905      4.499643
   1.05086      4.598076
   1.06267      4.700774
   1.07447      4.806419
   1.08628      4.914349
   1.09809      5.024174
   1.10989      4.957157
   1.12170      4.886204
   1.13351      4.816025
   1.14532      4.746671
   1.15712      4.784508
 
# Band-Index:   26
   1.15712      4.784508
   1.14532      4.899959
   1.13351      5.015572
   1.12170      5.131227
   1.10989      5.135668
   1.09809      5.028723
   1.08628      4.943093
   1.07447      4.844626
   1.06267      4.746919
   1.05086      4.650063
   1.03905      4.554129
   1.02724      4.459360
   1.01544      4.365983
   1.00363      4.399835
   0.99182      4.462542
   0.98001      4.526265
   0.96821      4.590970
   0.95640      4.656630
   0.94459      4.723224
   0.93278      4.820748
   0.92098      4.934161
   0.90917      5.048675
   0.89736      5.163989
   0.88555      5.092986
   0.87375      5.141643
   0.86194      5.214388
   0.85013      5.287969
   0.83832      5.362385
   0.82652      5.414189
   0.81471      5.364528
   0.80290      5.315730
   0.79110      5.267843
   0.77929      5.220852
   0.76748      5.174754
   0.75567      5.129482
   0.74387      5.084972
   0.73206      5.041139
   0.72025      4.997891
   0.70844      4.955126
   0.69664      4.912729
   0.68483      4.870630
   0.67302      4.828738
   0.66121      4.787012
   0.64941      4.745494
   0.63760      4.704304
   0.62579      4.663854
   0.61398      4.625065
   0.60218      4.589966
   0.59037      4.563109
   0.57856      4.552426
   0.57856      4.552426
   0.56675      4.563109
   0.55495      4.589966
   0.54314      4.625065
   0.53133      4.663854
   0.51953      4.704304
   0.50772      4.745494
   0.49591      4.787012
   0.48410      4.828738
   0.47230      4.870630
   0.46049      4.912729
   0.44868      4.955126
   0.43687      4.997891
   0.42507      5.041139
   0.41326      5.084972
   0.40145      5.129482
   0.38964      5.174754
   0.37784      5.220852
   0.36603      5.267843
   0.35422      5.315730
   0.34241      5.364528
   0.33061      5.414189
   0.31880      5.362385
   0.30699      5.287969
   0.29518      5.214388
   0.28338      5.141643
   0.27157      5.092986
   0.25976      5.163989
   0.24796      5.048675
   0.23615      4.934161
   0.22434      4.820748
   0.21253      4.723224
   0.20073      4.656630
   0.18892      4.590970
   0.17711      4.526265
   0.16530      4.462542
   0.15350      4.399835
   0.14169      4.365983
   0.12988      4.459360
   0.11807      4.554129
   0.10627      4.650063
   0.09446      4.746919
   0.08265      4.844626
   0.07084      4.943093
   0.05904      5.028723
   0.04723      5.135668
   0.03542      5.131227
   0.02361      5.015572
   0.01181      4.899959
   0.00000      4.784508
 
# Band-Index:   27
   0.00000      5.546573
   0.01181      5.444706
   0.02361      5.343306
   0.03542      5.242407
   0.04723      5.142052
   0.05904      5.042246
   0.07084      5.100850
   0.08265      5.173386
   0.09446      5.246158
   0.10627      5.318944
   0.11807      5.391443
   0.12988      5.463290
   0.14169      5.533817
   0.15350      5.602190
   0.16530      5.667046
   0.17711      5.726191
   0.18892      5.776154
   0.20073      5.708664
   0.21253      5.608462
   0.22434      5.506372
   0.23615      5.403316
   0.24796      5.299847
   0.25976      5.196320
   0.27157      5.279824
   0.28338      5.396016
   0.29518      5.512393
   0.30699      5.515667
   0.31880      5.464623
   0.33061      5.437694
   0.34241      5.513741
   0.35422      5.590599
   0.36603      5.668254
   0.37784      5.746702
   0.38964      5.825938
   0.40145      5.905956
   0.41326      5.986746
   0.42507      6.068305
   0.43687      6.150622
   0.44868      6.233696
   0.46049      6.317524
   0.47230      6.402085
   0.48410      6.487406
   0.49591      6.573424
   0.50772      6.660144
   0.51953      6.742974
   0.53133      6.725958
   0.54314      6.712251
   0.55495      6.702175
   0.56675      6.696021
   0.57856      6.693969
   0.57856      6.693969
   0.59037      6.696021
   0.60218      6.702175
   0.61398      6.712251
   0.62579      6.725958
   0.63760      6.742974
   0.64941      6.660144
   0.66121      6.573424
   0.67302      6.487406
   0.68483      6.402085
   0.69664      6.317524
   0.70844      6.233696
   0.72025      6.150622
   0.73206      6.068305
   0.74387      5.986746
   0.75567      5.905956
   0.76748      5.825938
   0.77929      5.746702
   0.79110      5.668254
   0.80290      5.590599
   0.81471      5.513741
   0.82652      5.437694
   0.83832      5.464623
   0.85013      5.515667
   0.86194      5.512393
   0.87375      5.396016
   0.88555      5.279824
   0.89736      5.196320
   0.90917      5.299847
   0.92098      5.403316
   0.93278      5.506372
   0.94459      5.608462
   0.95640      5.708664
   0.96821      5.776154
   0.98001      5.726191
   0.99182      5.667046
   1.00363      5.602190
   1.01544      5.533817
   1.02724      5.463290
   1.03905      5.391443
   1.05086      5.318944
   1.06267      5.246158
   1.07447      5.173386
   1.08628      5.100850
   1.09809      5.042246
   1.10989      5.142052
   1.12170      5.242407
   1.13351      5.343306
   1.14532      5.444706
   1.15712      5.546573
 
# Band-Index:   28
   1.15712      5.546573
   1.14532      5.478765
   1.13351      5.363067
   1.12170      5.248672
   1.10989      5.246638
   1.09809      5.361547
   1.08628      5.475518
   1.07447      5.587902
   1.06267      5.697556
   1.05086      5.802475
   1.03905      5.898688
   1.02724      5.977874
   1.01544      6.024267
   1.00363      6.020980
   0.99182      5.971713
   0.98001      5.895269
   0.96821      5.805341
   0.95640      5.811884
   0.94459      5.827993
   0.93278      5.822322
   0.92098      5.798129
   0.90917      5.761338
   0.89736      5.717082
   0.88555      5.668727
   0.87375      5.618310
   0.86194      5.567045
   0.85013      5.628813
   0.83832      5.745121
   0.82652      5.861169
   0.81471      5.976754
   0.80290      6.091865
   0.79110      6.206104
   0.77929      6.319342
   0.76748      6.431337
   0.75567      6.541816
   0.74387      6.650459
   0.73206      6.756935
   0.72025      6.860740
   0.70844      6.877102
   0.69664      6.855296
   0.68483      6.831899
   0.67302      6.808022
   0.66121      6.784661
   0.64941      6.762746
   0.63760      6.747608
   0.62579      6.835730
   0.61398      6.924507
   0.60218      7.013998
   0.59037      7.104149
   0.57856      7.194947
   0.57856      7.194947
   0.56675      7.104149
   0.55495      7.013998
   0.54314      6.924507
   0.53133      6.835730
   0.51953      6.747608
   0.50772      6.762746
   0.49591      6.784661
   0.48410      6.808022
   0.47230      6.831899
   0.46049      6.855296
   0.44868      6.877102
   0.43687      6.860740
   0.42507      6.756935
   0.41326      6.650459
   0.40145      6.541816
   0.38964      6.431337
   0.37784      6.319342
   0.36603      6.206104
   0.35422      6.091865
   0.34241      5.976754
   0.33061      5.861169
   0.31880      5.745121
   0.30699      5.628813
   0.29518      5.567045
   0.28338      5.618310
   0.27157      5.668727
   0.25976      5.717082
   0.24796      5.761338
   0.23615      5.798129
   0.22434      5.822322
   0.21253      5.827993
   0.20073      5.811884
   0.18892      5.805341
   0.17711      5.895269
   0.16530      5.971713
   0.15350      6.020980
   0.14169      6.024267
   0.12988      5.977874
   0.11807      5.898688
   0.10627      5.802475
   0.09446      5.697556
   0.08265      5.587902
   0.07084      5.475518
   0.05904      5.361547
   0.04723      5.246638
   0.03542      5.248672
   0.02361      5.363067
   0.01181      5.478765
   0.00000      5.546573
 
# Band-Index:   29
   0.00000      5.595715
   0.01181      5.648877
   0.02361      5.751605
   0.03542      5.854704
   0.04723      5.958161
   0.05904      6.061968
   0.07084      6.166090
   0.08265      6.270505
   0.09446      6.375185
   0.10627      6.480144
   0.11807      6.585424
   0.12988      6.537680
   0.14169      6.499646
   0.15350      6.503213
   0.16530      6.440100
   0.17711      6.384338
   0.18892      6.339268
   0.20073      6.309767
   0.21253      6.301026
   0.22434      6.314975
   0.23615      6.348086
   0.24796      6.394112
   0.25976      6.447586
   0.27157      6.504775
   0.28338      6.562989
   0.29518      6.620515
   0.30699      6.675969
   0.31880      6.728162
   0.33061      6.776001
   0.34241      6.818452
   0.35422      6.854550
   0.36603      6.883520
   0.37784      6.904609
   0.38964      6.917554
   0.40145      6.922497
   0.41326      6.919923
   0.42507      6.910690
   0.43687      6.895994
   0.44868      6.961407
   0.46049      7.058334
   0.47230      7.112196
   0.48410      7.118954
   0.49591      7.126283
   0.50772      7.134250
   0.51953      7.142758
   0.53133      7.151907
   0.54314      7.161689
   0.55495      7.172116
   0.56675      7.183202
   0.57856      7.194947
   0.57856      7.194947
   0.59037      7.183202
   0.60218      7.172116
   0.61398      7.161689
   0.62579      7.151907
   0.63760      7.142758
   0.64941      7.134250
   0.66121      7.126283
   0.67302      7.118954
   0.68483      7.112196
   0.69664      7.058334
   0.70844      6.961407
   0.72025      6.895994
   0.73206      6.910690
   0.74387      6.919923
   0.75567      6.922497
   0.76748      6.917554
   0.77929      6.904609
   0.79110      6.883520
   0.80290      6.854550
   0.81471      6.818452
   0.82652      6.776001
   0.83832      6.728162
   0.85013      6.675969
   0.86194      6.620515
   0.87375      6.562989
   0.88555      6.504775
   0.89736      6.447586
   0.90917      6.394112
   0.92098      6.348086
   0.93278      6.314975
   0.94459      6.301026
   0.95640      6.309767
   0.96821      6.339268
   0.98001      6.384338
   0.99182      6.440100
   1.00363      6.503213
   1.01544      6.499646
   1.02724      6.537680
   1.03905      6.585424
   1.05086      6.480144
   1.06267      6.375185
   1.07447      6.270505
   1.08628      6.166090
   1.09809      6.061968
   1.10989      5.958161
   1.12170      5.854704
   1.13351      5.751605
   1.14532      5.648877
   1.15712      5.595715
 
# Band-Index:   30
   1.15712      5.595715
   1.14532      5.713803
   1.13351      5.832995
   1.12170      5.953277
   1.10989      6.074520
   1.09809      6.196710
   1.08628      6.319773
   1.07447      6.443698
   1.06267      6.568394
   1.05086      6.687136
   1.03905      6.605576
   1.02724      6.644132
   1.01544      6.571639
   1.00363      6.508268
   0.99182      6.559287
   0.98001      6.632763
   0.96821      6.713156
   0.95640      6.791111
   0.94459      6.860613
   0.93278      6.917692
   0.92098      6.961292
   0.90917      6.992855
   0.89736      7.015021
   0.88555      7.030435
   0.87375      7.041350
   0.86194      7.049220
   0.85013      7.055063
   0.83832      7.059616
   0.82652      7.063317
   0.81471      7.066555
   0.80290      7.069562
   0.79110      7.072522
   0.77929      7.075563
   0.76748      7.078807
   0.75567      7.082341
   0.74387      7.086203
   0.73206      7.090459
   0.72025      7.095152
   0.70844      7.100320
   0.69664      7.105993
   0.68483      7.150855
   0.67302      7.238153
   0.66121      7.296375
   0.64941      7.279792
   0.63760      7.263893
   0.62579      7.248703
   0.61398      7.234227
   0.60218      7.220459
   0.59037      7.207364
   0.57856      7.194947
   0.57856      7.194947
   0.56675      7.207364
   0.55495      7.220459
   0.54314      7.234227
   0.53133      7.248703
   0.51953      7.263893
   0.50772      7.279792
   0.49591      7.296375
   0.48410      7.238153
   0.47230      7.150855
   0.46049      7.105993
   0.44868      7.100320
   0.43687      7.095152
   0.42507      7.090459
   0.41326      7.086203
   0.40145      7.082341
   0.38964      7.078807
   0.37784      7.075563
   0.36603      7.072522
   0.35422      7.069562
   0.34241      7.066555
   0.33061      7.063317
   0.31880      7.059616
   0.30699      7.055063
   0.29518      7.049220
   0.28338      7.041350
   0.27157      7.030435
   0.25976      7.015021
   0.24796      6.992855
   0.23615      6.961292
   0.22434      6.917692
   0.21253      6.860613
   0.20073      6.791111
   0.18892      6.713156
   0.17711      6.632763
   0.16530      6.559287
   0.15350      6.508268
   0.14169      6.571639
   0.12988      6.644132
   0.11807      6.605576
   0.10627      6.687136
   0.09446      6.568394
   0.08265      6.443698
   0.07084      6.319773
   0.05904      6.196710
   0.04723      6.074520
   0.03542      5.953277
   0.02361      5.832995
   0.01181      5.713803
   0.00000      5.595715
 
# Band-Index:   31
   0.00000      7.221178
   0.01181      7.194131
   0.02361      7.161380
   0.03542      7.120918
   0.04723      7.070730
   0.05904      7.009628
   0.07084      6.937926
   0.08265      6.858037
   0.09446      6.773100
   0.10627      6.693793
   0.11807      6.719774
   0.12988      6.690850
   0.14169      6.796545
   0.15350      6.902397
   0.16530      7.008434
   0.17711      7.114643
   0.18892      7.221009
   0.20073      7.327515
   0.21253      7.420377
   0.22434      7.475350
   0.23615      7.484611
   0.24796      7.493592
   0.25976      7.502319
   0.27157      7.510743
   0.28338      7.518881
   0.29518      7.526715
   0.30699      7.534268
   0.31880      7.541522
   0.33061      7.548475
   0.34241      7.555115
   0.35422      7.550771
   0.36603      7.525730
   0.37784      7.501396
   0.38964      7.477708
   0.40145      7.454728
   0.41326      7.432438
   0.42507      7.410858
   0.43687      7.389990
   0.44868      7.369836
   0.46049      7.350399
   0.47230      7.331678
   0.48410      7.313671
   0.49591      7.319302
   0.50772      7.393259
   0.51953      7.458866
   0.53133      7.514900
   0.54314      7.471058
   0.55495      7.378419
   0.56675      7.286376
   0.57856      7.194947
   0.57856      7.194947
   0.59037      7.286376
   0.60218      7.378419
   0.61398      7.471058
   0.62579      7.514900
   0.63760      7.458866
   0.64941      7.393259
   0.66121      7.319302
   0.67302      7.313671
   0.68483      7.331678
   0.69664      7.350399
   0.70844      7.369836
   0.72025      7.389990
   0.73206      7.410858
   0.74387      7.432438
   0.75567      7.454728
   0.76748      7.477708
   0.77929      7.501396
   0.79110      7.525730
   0.80290      7.550771
   0.81471      7.555115
   0.82652      7.548475
   0.83832      7.541522
   0.85013      7.534268
   0.86194      7.526715
   0.87375      7.518881
   0.88555      7.510743
   0.89736      7.502319
   0.90917      7.493592
   0.92098      7.484611
   0.93278      7.475350
   0.94459      7.420377
   0.95640      7.327515
   0.96821      7.221009
   0.98001      7.114643
   0.99182      7.008434
   1.00363      6.902397
   1.01544      6.796545
   1.02724      6.690850
   1.03905      6.719774
   1.05086      6.693793
   1.06267      6.773100
   1.07447      6.858037
   1.08628      6.937926
   1.09809      7.009628
   1.10989      7.070730
   1.12170      7.120918
   1.13351      7.161380
   1.14532      7.194131
   1.15712      7.221178
 
# Band-Index:   32
   1.15712      7.221178
   1.14532      7.244121
   1.13351      7.264161
   1.12170      7.282098
   1.10989      7.221447
   1.09809      7.133157
   1.08628      7.046577
   1.07447      6.961781
   1.06267      6.878917
   1.05086      6.798171
   1.03905      6.819805
   1.02724      6.946305
   1.01544      7.073190
   1.00363      7.200136
   0.99182      7.326748
   0.98001      7.337519
   0.96821      7.353574
   0.95640      7.380199
   0.94459      7.434149
   0.93278      7.476258
   0.92098      7.548058
   0.90917      7.633803
   0.89736      7.730447
   0.88555      7.740774
   0.87375      7.712836
   0.86194      7.684819
   0.85013      7.657036
   0.83832      7.629648
   0.82652      7.602760
   0.81471      7.576459
   0.80290      7.561460
   0.79110      7.567487
   0.77929      7.573199
   0.76748      7.578590
   0.75567      7.583666
   0.74387      7.588421
   0.73206      7.592843
   0.72025      7.596952
   0.70844      7.600735
   0.69664      7.604192
   0.68483      7.607322
   0.67302      7.610125
   0.66121      7.612594
   0.64941      7.614739
   0.63760      7.616556
   0.62579      7.564265
   0.61398      7.560124
   0.60218      7.593408
   0.59037      7.613800
   0.57856      7.620770
   0.57856      7.620770
   0.56675      7.613800
   0.55495      7.593408
   0.54314      7.560124
   0.53133      7.564265
   0.51953      7.616556
   0.50772      7.614739
   0.49591      7.612594
   0.48410      7.610125
   0.47230      7.607322
   0.46049      7.604192
   0.44868      7.600735
   0.43687      7.596952
   0.42507      7.592843
   0.41326      7.588421
   0.40145      7.583666
   0.38964      7.578590
   0.37784      7.573199
   0.36603      7.567487
   0.35422      7.561460
   0.34241      7.576459
   0.33061      7.602760
   0.31880      7.629648
   0.30699      7.657036
   0.29518      7.684819
   0.28338      7.712836
   0.27157      7.740774
   0.25976      7.730447
   0.24796      7.633803
   0.23615      7.548058
   0.22434      7.476258
   0.21253      7.434149
   0.20073      7.380199
   0.18892      7.353574
   0.17711      7.337519
   0.16530      7.326748
   0.15350      7.200136
   0.14169      7.073190
   0.12988      6.946305
   0.11807      6.819805
   0.10627      6.798171
   0.09446      6.878917
   0.08265      6.961781
   0.07084      7.046577
   0.05904      7.133157
   0.04723      7.221447
   0.03542      7.282098
   0.02361      7.264161
   0.01181      7.244121
   0.00000      7.221178
 
# Band-Index:   33
   0.00000      7.589292
   0.01181      7.495256
   0.02361      7.402555
   0.03542      7.311259
   0.04723      7.298493
   0.05904      7.313730
   0.07084      7.328097
   0.08265      7.341723
   0.09446      7.354795
   0.10627      7.367391
   0.11807      7.350711
   0.12988      7.338628
   0.14169      7.330929
   0.15350      7.327693
   0.16530      7.329488
   0.17711      7.435584
   0.18892      7.445926
   0.20073      7.455997
   0.21253      7.465800
   0.22434      7.540914
   0.23615      7.647754
   0.24796      7.754674
   0.25976      7.768042
   0.27157      7.835061
   0.28338      7.945330
   0.29518      8.059616
   0.30699      8.176780
   0.31880      8.295962
   0.33061      8.410253
   0.34241      8.356839
   0.35422      8.310631
   0.36603      8.272481
   0.37784      8.242647
   0.38964      8.221483
   0.40145      8.208709
   0.41326      8.203740
   0.42507      8.205634
   0.43687      8.213216
   0.44868      8.225182
   0.46049      8.133997
   0.47230      8.038018
   0.48410      7.942383
   0.49591      7.847153
   0.50772      7.752375
   0.51953      7.658110
   0.53133      7.618042
   0.54314      7.619189
   0.55495      7.620015
   0.56675      7.620510
   0.57856      7.620770
   0.57856      7.620770
   0.59037      7.620510
   0.60218      7.620015
   0.61398      7.619189
   0.62579      7.618042
   0.63760      7.658110
   0.64941      7.752375
   0.66121      7.847153
   0.67302      7.942383
   0.68483      8.038018
   0.69664      8.133997
   0.70844      8.225182
   0.72025      8.213216
   0.73206      8.205634
   0.74387      8.203740
   0.75567      8.208709
   0.76748      8.221483
   0.77929      8.242647
   0.79110      8.272481
   0.80290      8.310631
   0.81471      8.356839
   0.82652      8.410253
   0.83832      8.295962
   0.85013      8.176780
   0.86194      8.059616
   0.87375      7.945330
   0.88555      7.835061
   0.89736      7.768042
   0.90917      7.754674
   0.92098      7.647754
   0.93278      7.540914
   0.94459      7.465800
   0.95640      7.455997
   0.96821      7.445926
   0.98001      7.435584
   0.99182      7.329488
   1.00363      7.327693
   1.01544      7.330929
   1.02724      7.338628
   1.03905      7.350711
   1.05086      7.367391
   1.06267      7.354795
   1.07447      7.341723
   1.08628      7.328097
   1.09809      7.313730
   1.10989      7.298493
   1.12170      7.311259
   1.13351      7.402555
   1.14532      7.495256
   1.15712      7.589292
 
# Band-Index:   34
   1.15712      7.589292
   1.14532      7.684595
   1.13351      7.734226
   1.12170      7.647348
   1.10989      7.571716
   1.09809      7.508834
   1.08628      7.458664
   1.07447      7.419820
   1.06267      7.390118
   1.05086      7.367573
   1.03905      7.379575
   1.02724      7.391396
   1.01544      7.402891
   1.00363      7.414075
   0.99182      7.424970
   0.98001      7.452204
   0.96821      7.574568
   0.95640      7.688571
   0.94459      7.778158
   0.93278      7.816659
   0.92098      7.813064
   0.90917      7.793300
   0.89736      7.861637
   0.88555      7.968648
   0.87375      8.075593
   0.86194      8.182448
   0.85013      8.289099
   0.83832      8.395351
   0.82652      8.416580
   0.81471      8.538280
   0.80290      8.660682
   0.79110      8.780930
   0.77929      8.777858
   0.76748      8.703716
   0.75567      8.613268
   0.74387      8.518756
   0.73206      8.422911
   0.72025      8.326599
   0.70844      8.230225
   0.69664      8.240228
   0.68483      8.257150
   0.67302      8.274856
   0.66121      8.292620
   0.64941      8.309310
   0.63760      8.324355
   0.62579      8.337228
   0.61398      8.347763
   0.60218      8.355440
   0.59037      8.360127
   0.57856      8.361804
   0.57856      8.361804
   0.56675      8.360127
   0.55495      8.355440
   0.54314      8.347763
   0.53133      8.337228
   0.51953      8.324355
   0.50772      8.309310
   0.49591      8.292620
   0.48410      8.274856
   0.47230      8.257150
   0.46049      8.240228
   0.44868      8.230225
   0.43687      8.326599
   0.42507      8.422911
   0.41326      8.518756
   0.40145      8.613268
   0.38964      8.703716
   0.37784      8.777858
   0.36603      8.780930
   0.35422      8.660682
   0.34241      8.538280
   0.33061      8.416580
   0.31880      8.395351
   0.30699      8.289099
   0.29518      8.182448
   0.28338      8.075593
   0.27157      7.968648
   0.25976      7.861637
   0.24796      7.793300
   0.23615      7.813064
   0.22434      7.816659
   0.21253      7.778158
   0.20073      7.688571
   0.18892      7.574568
   0.17711      7.452204
   0.16530      7.424970
   0.15350      7.414075
   0.14169      7.402891
   0.12988      7.391396
   0.11807      7.379575
   0.10627      7.367573
   0.09446      7.390118
   0.08265      7.419820
   0.07084      7.458664
   0.05904      7.508834
   0.04723      7.571716
   0.03542      7.647348
   0.02361      7.734226
   0.01181      7.684595
   0.00000      7.589292
 
# Band-Index:   35
   0.00000      7.932826
   0.01181      7.830115
   0.02361      7.781104
   0.03542      7.878758
   0.04723      7.977479
   0.05904      8.077240
   0.07084      8.177983
   0.08265      8.279640
   0.09446      8.308557
   0.10627      8.268645
   0.11807      8.229495
   0.12988      8.191157
   0.14169      8.153883
   0.15350      8.117816
   0.16530      8.083370
   0.17711      8.051344
   0.18892      8.023630
   0.20073      8.005481
   0.21253      8.012867
   0.22434      8.072398
   0.23615      8.175057
   0.24796      8.294858
   0.25976      8.421054
   0.27157      8.550100
   0.28338      8.680535
   0.29518      8.607014
   0.30699      8.536052
   0.31880      8.470235
   0.33061      8.500809
   0.34241      8.604465
   0.35422      8.703097
   0.36603      8.783524
   0.37784      8.906562
   0.38964      9.029614
   0.40145      9.152486
   0.41326      9.274956
   0.42507      9.383055
   0.43687      9.489306
   0.44868      9.595864
   0.46049      9.702518
   0.47230      9.809107
   0.48410      9.807697
   0.49591      9.793128
   0.50772      9.780412
   0.51953      9.769586
   0.53133      9.760682
   0.54314      9.753729
   0.55495      9.748747
   0.56675      9.745751
   0.57856      9.744753
   0.57856      9.744753
   0.59037      9.745751
   0.60218      9.748747
   0.61398      9.753729
   0.62579      9.760682
   0.63760      9.769586
   0.64941      9.780412
   0.66121      9.793128
   0.67302      9.807697
   0.68483      9.809107
   0.69664      9.702518
   0.70844      9.595864
   0.72025      9.489306
   0.73206      9.383055
   0.74387      9.274956
   0.75567      9.152486
   0.76748      9.029614
   0.77929      8.906562
   0.79110      8.783524
   0.80290      8.703097
   0.81471      8.604465
   0.82652      8.500809
   0.83832      8.470235
   0.85013      8.536052
   0.86194      8.607014
   0.87375      8.680535
   0.88555      8.550100
   0.89736      8.421054
   0.90917      8.294858
   0.92098      8.175057
   0.93278      8.072398
   0.94459      8.012867
   0.95640      8.005481
   0.96821      8.023630
   0.98001      8.051344
   0.99182      8.083370
   1.00363      8.117816
   1.01544      8.153883
   1.02724      8.191157
   1.03905      8.229495
   1.05086      8.268645
   1.06267      8.308557
   1.07447      8.279640
   1.08628      8.177983
   1.09809      8.077240
   1.10989      7.977479
   1.12170      7.878758
   1.13351      7.781104
   1.14532      7.830115
   1.15712      7.932826
 
# Band-Index:   36
   1.15712      7.932826
   1.14532      8.040600
   1.13351      8.152155
   1.12170      8.266568
   1.10989      8.383189
   1.09809      8.432320
   1.08628      8.390422
   1.07447      8.349168
   1.06267      8.382115
   1.05086      8.485435
   1.03905      8.589537
   1.02724      8.694284
   1.01544      8.799727
   1.00363      8.905681
   0.99182      9.012145
   0.98001      9.119054
   0.96821      9.226344
   0.95640      9.300123
   0.94459      9.204641
   0.93278      9.111149
   0.92098      9.019864
   0.90917      8.931004
   0.89736      8.844918
   0.88555      8.761947
   0.87375      8.682499
   0.86194      8.811680
   0.85013      8.943123
   0.83832      9.074630
   0.82652      9.205746
   0.81471      9.136452
   0.80290      9.046877
   0.79110      8.978092
   0.77929      8.990278
   0.76748      9.073625
   0.75567      9.173452
   0.74387      9.277470
   0.73206      9.396834
   0.72025      9.517899
   0.70844      9.637905
   0.69664      9.756569
   0.68483      9.824076
   0.67302      9.915602
   0.66121     10.021743
   0.64941     10.127492
   0.63760     10.169078
   0.62579     10.173561
   0.61398     10.174697
   0.60218     10.172258
   0.59037     10.167840
   0.57856     10.165823
   0.57856     10.165823
   0.56675     10.167840
   0.55495     10.172258
   0.54314     10.174697
   0.53133     10.173561
   0.51953     10.169078
   0.50772     10.127492
   0.49591     10.021743
   0.48410      9.915602
   0.47230      9.824076
   0.46049      9.756569
   0.44868      9.637905
   0.43687      9.517899
   0.42507      9.396834
   0.41326      9.277470
   0.40145      9.173452
   0.38964      9.073625
   0.37784      8.990278
   0.36603      8.978092
   0.35422      9.046877
   0.34241      9.136452
   0.33061      9.205746
   0.31880      9.074630
   0.30699      8.943123
   0.29518      8.811680
   0.28338      8.682499
   0.27157      8.761947
   0.25976      8.844918
   0.24796      8.931004
   0.23615      9.019864
   0.22434      9.111149
   0.21253      9.204641
   0.20073      9.300123
   0.18892      9.226344
   0.17711      9.119054
   0.16530      9.012145
   0.15350      8.905681
   0.14169      8.799727
   0.12988      8.694284
   0.11807      8.589537
   0.10627      8.485435
   0.09446      8.382115
   0.08265      8.349168
   0.07084      8.390422
   0.05904      8.432320
   0.04723      8.383189
   0.03542      8.266568
   0.02361      8.152155
   0.01181      8.040600
   0.00000      7.932826
 
# Band-Index:   37
   0.00000      8.649194
   0.01181      8.604928
   0.02361      8.561070
   0.03542      8.517661
   0.04723      8.474731
   0.05904      8.501548
   0.07084      8.621309
   0.08265      8.742161
   0.09446      8.863980
   0.10627      8.986612
   0.11807      9.105156
   0.12988      9.150980
   0.14169      9.196614
   0.15350      9.242029
   0.16530      9.287134
   0.17711      9.331859
   0.18892      9.376135
   0.20073      9.333944
   0.21253      9.441783
   0.22434      9.505610
   0.23615      9.547357
   0.24796      9.588278
   0.25976      9.628361
   0.27157      9.667433
   0.28338      9.617036
   0.29518      9.520576
   0.30699      9.423835
   0.31880      9.327131
   0.33061      9.230976
   0.34241      9.336337
   0.35422      9.466116
   0.36603      9.594793
   0.37784      9.722062
   0.38964      9.847442
   0.40145      9.957541
   0.41326      9.931387
   0.42507      9.906717
   0.43687      9.883595
   0.44868      9.862076
   0.46049      9.842219
   0.47230      9.873558
   0.48410      9.988474
   0.49591     10.100839
   0.50772     10.162000
   0.51953     10.232785
   0.53133     10.324083
   0.54314     10.282662
   0.55495     10.255406
   0.56675     10.241472
   0.57856     10.237494
   0.57856     10.237494
   0.59037     10.241472
   0.60218     10.255406
   0.61398     10.282662
   0.62579     10.324083
   0.63760     10.232785
   0.64941     10.162000
   0.66121     10.100839
   0.67302      9.988474
   0.68483      9.873558
   0.69664      9.842219
   0.70844      9.862076
   0.72025      9.883595
   0.73206      9.906717
   0.74387      9.931387
   0.75567      9.957541
   0.76748      9.847442
   0.77929      9.722062
   0.79110      9.594793
   0.80290      9.466116
   0.81471      9.336337
   0.82652      9.230976
   0.83832      9.327131
   0.85013      9.423835
   0.86194      9.520576
   0.87375      9.617036
   0.88555      9.667433
   0.89736      9.628361
   0.90917      9.588278
   0.92098      9.547357
   0.93278      9.505610
   0.94459      9.441783
   0.95640      9.333944
   0.96821      9.376135
   0.98001      9.331859
   0.99182      9.287134
   1.00363      9.242029
   1.01544      9.196614
   1.02724      9.150980
   1.03905      9.105156
   1.05086      8.986612
   1.06267      8.863980
   1.07447      8.742161
   1.08628      8.621309
   1.09809      8.501548
   1.10989      8.474731
   1.12170      8.517661
   1.13351      8.561070
   1.14532      8.604928
   1.15712      8.649194
 
# Band-Index:   38
   1.15712      8.649194
   1.14532      8.693862
   1.13351      8.738829
   1.12170      8.784086
   1.10989      8.829590
   1.09809      8.875296
   1.08628      8.921184
   1.07447      8.967149
   1.06267      9.013167
   1.05086      9.059198
   1.03905      9.109835
   1.02724      9.233572
   1.01544      9.357752
   1.00363      9.482251
   0.99182      9.596750
   0.98001      9.496330
   0.96821      9.397407
   0.95640      9.419890
   0.94459      9.463049
   0.93278      9.549857
   0.92098      9.657940
   0.90917      9.766015
   0.89736      9.808237
   0.88555      9.713025
   0.87375      9.705469
   0.86194      9.742376
   0.85013      9.778138
   0.83832      9.812658
   0.82652      9.845895
   0.81471      9.877704
   0.80290      9.908206
   0.79110      9.937258
   0.77929      9.964828
   0.76748      9.985118
   0.75567      9.970539
   0.74387     10.038319
   0.73206     10.059728
   0.72025     10.079445
   0.70844     10.097518
   0.69664     10.113894
   0.68483     10.128618
   0.67302     10.141606
   0.66121     10.152756
   0.64941     10.210189
   0.63760     10.315529
   0.62579     10.337332
   0.61398     10.441009
   0.60218     10.543580
   0.59037     10.644731
   0.57856     10.744057
   0.57856     10.744057
   0.56675     10.644731
   0.55495     10.543580
   0.54314     10.441009
   0.53133     10.337332
   0.51953     10.315529
   0.50772     10.210189
   0.49591     10.152756
   0.48410     10.141606
   0.47230     10.128618
   0.46049     10.113894
   0.44868     10.097518
   0.43687     10.079445
   0.42507     10.059728
   0.41326     10.038319
   0.40145      9.970539
   0.38964      9.985118
   0.37784      9.964828
   0.36603      9.937258
   0.35422      9.908206
   0.34241      9.877704
   0.33061      9.845895
   0.31880      9.812658
   0.30699      9.778138
   0.29518      9.742376
   0.28338      9.705469
   0.27157      9.713025
   0.25976      9.808237
   0.24796      9.766015
   0.23615      9.657940
   0.22434      9.549857
   0.21253      9.463049
   0.20073      9.419890
   0.18892      9.397407
   0.17711      9.496330
   0.16530      9.596750
   0.15350      9.482251
   0.14169      9.357752
   0.12988      9.233572
   0.11807      9.109835
   0.10627      9.059198
   0.09446      9.013167
   0.08265      8.967149
   0.07084      8.921184
   0.05904      8.875296
   0.04723      8.829590
   0.03542      8.784086
   0.02361      8.738829
   0.01181      8.693862
   0.00000      8.649194
 
# Band-Index:   39
   0.00000     11.074512
   0.01181     10.995644
   0.02361     10.883643
   0.03542     10.772180
   0.04723     10.661317
   0.05904     10.551047
   0.07084     10.441476
   0.08265     10.332639
   0.09446     10.224593
   0.10627     10.117399
   0.11807     10.011124
   0.12988      9.905807
   0.14169      9.801596
   0.15350      9.698541
   0.16530      9.606999
   0.17711      9.731918
   0.18892      9.856933
   0.20073      9.981970
   0.21253     10.106957
   0.22434     10.086951
   0.23615      9.995418
   0.24796      9.902439
   0.25976      9.873981
   0.27157      9.981701
   0.28338     10.089082
   0.29518     10.195994
   0.30699     10.212438
   0.31880     10.176766
   0.33061     10.142043
   0.34241     10.108339
   0.35422     10.075720
   0.36603     10.044287
   0.37784     10.014058
   0.38964      9.990878
   0.40145     10.015386
   0.41326     10.090644
   0.42507     10.207078
   0.43687     10.318931
   0.44868     10.425079
   0.46049     10.524144
   0.47230     10.614457
   0.48410     10.598484
   0.49591     10.516826
   0.50772     10.442938
   0.51953     10.378145
   0.53133     10.416089
   0.54314     10.510745
   0.55495     10.598116
   0.56675     10.676539
   0.57856     10.744057
   0.57856     10.744057
   0.59037     10.676539
   0.60218     10.598116
   0.61398     10.510745
   0.62579     10.416089
   0.63760     10.378145
   0.64941     10.442938
   0.66121     10.516826
   0.67302     10.598484
   0.68483     10.614457
   0.69664     10.524144
   0.70844     10.425079
   0.72025     10.318931
   0.73206     10.207078
   0.74387     10.090644
   0.75567     10.015386
   0.76748      9.990878
   0.77929     10.014058
   0.79110     10.044287
   0.80290     10.075720
   0.81471     10.108339
   0.82652     10.142043
   0.83832     10.176766
   0.85013     10.212438
   0.86194     10.195994
   0.87375     10.089082
   0.88555      9.981701
   0.89736      9.873981
   0.90917      9.902439
   0.92098      9.995418
   0.93278     10.086951
   0.94459     10.106957
   0.95640      9.981970
   0.96821      9.856933
   0.98001      9.731918
   0.99182      9.606999
   1.00363      9.698541
   1.01544      9.801596
   1.02724      9.905807
   1.03905     10.011124
   1.05086     10.117399
   1.06267     10.224593
   1.07447     10.332639
   1.08628     10.441476
   1.09809     10.551047
   1.10989     10.661317
   1.12170     10.772180
   1.13351     10.883643
   1.14532     10.995644
   1.15712     11.074512
 
# Band-Index:   40
   1.15712     11.074512
   1.14532     11.068254
   1.13351     11.056863
   1.12170     11.040833
   1.10989     11.020662
   1.09809     10.996836
   1.08628     10.969822
   1.07447     10.940055
   1.06267     10.898791
   1.05086     10.847419
   1.03905     10.790224
   1.02724     10.727616
   1.01544     10.660087
   1.00363     10.588095
   0.99182     10.512104
   0.98001     10.432565
   0.96821     10.349902
   0.95640     10.264507
   0.94459     10.176746
   0.93278     10.231825
   0.92098     10.356493
   0.90917     10.402339
   0.89736     10.363094
   0.88555     10.324397
   0.87375     10.286330
   0.86194     10.248984
   0.85013     10.302245
   0.83832     10.407632
   0.82652     10.511900
   0.81471     10.614733
   0.80290     10.715787
   0.79110     10.814429
   0.77929     10.910025
   0.76748     11.001647
   0.75567     11.088055
   0.74387     11.167489
   0.73206     11.087177
   0.72025     10.981288
   0.70844     10.878812
   0.69664     10.780334
   0.68483     10.686629
   0.67302     10.694067
   0.66121     10.760790
   0.64941     10.812402
   0.63760     10.846875
   0.62579     10.862773
   0.61398     10.859542
   0.60218     10.837660
   0.59037     10.798504
   0.57856     10.744057
   0.57856     10.744057
   0.56675     10.798504
   0.55495     10.837660
   0.54314     10.859542
   0.53133     10.862773
   0.51953     10.846875
   0.50772     10.812402
   0.49591     10.760790
   0.48410     10.694067
   0.47230     10.686629
   0.46049     10.780334
   0.44868     10.878812
   0.43687     10.981288
   0.42507     11.087177
   0.41326     11.167489
   0.40145     11.088055
   0.38964     11.001647
   0.37784     10.910025
   0.36603     10.814429
   0.35422     10.715787
   0.34241     10.614733
   0.33061     10.511900
   0.31880     10.407632
   0.30699     10.302245
   0.29518     10.248984
   0.28338     10.286330
   0.27157     10.324397
   0.25976     10.363094
   0.24796     10.402339
   0.23615     10.356493
   0.22434     10.231825
   0.21253     10.176746
   0.20073     10.264507
   0.18892     10.349902
   0.17711     10.432565
   0.16530     10.512104
   0.15350     10.588095
   0.14169     10.660087
   0.12988     10.727616
   0.11807     10.790224
   0.10627     10.847419
   0.09446     10.898791
   0.08265     10.940055
   0.07084     10.969822
   0.05904     10.996836
   0.04723     11.020662
   0.03542     11.040833
   0.02361     11.056863
   0.01181     11.068254
   0.00000     11.074512
 
# Band-Index:   41
   0.00000     11.108138
   0.01181     11.075168
   0.02361     11.069831
   0.03542     11.058096
   0.04723     11.039730
   0.05904     11.014586
   0.07084     10.982668
   0.08265     10.944009
   0.09446     10.907938
   0.10627     10.873837
   0.11807     10.838075
   0.12988     10.800970
   0.14169     10.762771
   0.15350     10.723719
   0.16530     10.684046
   0.17711     10.643902
   0.18892     10.603510
   0.20073     10.562998
   0.21253     10.522505
   0.22434     10.482157
   0.23615     10.442068
   0.24796     10.480884
   0.25976     10.605026
   0.27157     10.728655
   0.28338     10.851780
   0.29518     10.974281
   0.30699     11.096154
   0.31880     11.217290
   0.33061     11.337566
   0.34241     11.456905
   0.35422     11.478097
   0.36603     11.488418
   0.37784     11.502196
   0.38964     11.420849
   0.40145     11.307333
   0.41326     11.195984
   0.42507     11.237731
   0.43687     11.295831
   0.44868     11.338424
   0.46049     11.362180
   0.47230     11.364823
   0.48410     11.346108
   0.49591     11.307885
   0.50772     11.253348
   0.51953     11.186103
   0.53133     11.109025
   0.54314     11.024672
   0.55495     10.934886
   0.56675     10.841018
   0.57856     10.744057
   0.57856     10.744057
   0.59037     10.841018
   0.60218     10.934886
   0.61398     11.024672
   0.62579     11.109025
   0.63760     11.186103
   0.64941     11.253348
   0.66121     11.307885
   0.67302     11.346108
   0.68483     11.364823
   0.69664     11.362180
   0.70844     11.338424
   0.72025     11.295831
   0.73206     11.237731
   0.74387     11.195984
   0.75567     11.307333
   0.76748     11.420849
   0.77929     11.502196
   0.79110     11.488418
   0.80290     11.478097
   0.81471     11.456905
   0.82652     11.337566
   0.83832     11.217290
   0.85013     11.096154
   0.86194     10.974281
   0.87375     10.851780
   0.88555     10.728655
   0.89736     10.605026
   0.90917     10.480884
   0.92098     10.442068
   0.93278     10.482157
   0.94459     10.522505
   0.95640     10.562998
   0.96821     10.603510
   0.98001     10.643902
   0.99182     10.684046
   1.00363     10.723719
   1.01544     10.762771
   1.02724     10.800970
   1.03905     10.838075
   1.05086     10.873837
   1.06267     10.907938
   1.07447     10.944009
   1.08628     10.982668
   1.09809     11.014586
   1.10989     11.039730
   1.12170     11.058096
   1.13351     11.069831
   1.14532     11.075168
   1.15712     11.108138
 
# Band-Index:   42
   1.15712     11.108138
   1.14532     11.221081
   1.13351     11.334435
   1.12170     11.448160
   1.10989     11.562219
   1.09809     11.676581
   1.08628     11.791181
   1.07447     11.905993
   1.06267     11.916165
   1.05086     11.874650
   1.03905     11.834838
   1.02724     11.796824
   1.01544     11.760550
   1.00363     11.726099
   0.99182     11.693517
   0.98001     11.662838
   0.96821     11.634123
   0.95640     11.607418
   0.94459     11.582784
   0.93278     11.560284
   0.92098     11.539987
   0.90917     11.521950
   0.89736     11.506310
   0.88555     11.493108
   0.87375     11.482483
   0.86194     11.474472
   0.85013     11.469217
   0.83832     11.466832
   0.82652     11.467436
   0.81471     11.471152
   0.80290     11.575225
   0.79110     11.653234
   0.77929     11.536234
   0.76748     11.519634
   0.75567     11.540776
   0.74387     11.565733
   0.73206     11.594572
   0.72025     11.627355
   0.70844     11.664080
   0.69664     11.704693
   0.68483     11.749089
   0.67302     11.797039
   0.66121     11.848191
   0.64941     11.901916
   0.63760     11.957266
   0.62579     12.012675
   0.61398     12.065569
   0.60218     12.111640
   0.59037     12.144420
   0.57856     12.156557
   0.57856     12.156557
   0.56675     12.144420
   0.55495     12.111640
   0.54314     12.065569
   0.53133     12.012675
   0.51953     11.957266
   0.50772     11.901916
   0.49591     11.848191
   0.48410     11.797039
   0.47230     11.749089
   0.46049     11.704693
   0.44868     11.664080
   0.43687     11.627355
   0.42507     11.594572
   0.41326     11.565733
   0.40145     11.540776
   0.38964     11.519634
   0.37784     11.536234
   0.36603     11.653234
   0.35422     11.575225
   0.34241     11.471152
   0.33061     11.467436
   0.31880     11.466832
   0.30699     11.469217
   0.29518     11.474472
   0.28338     11.482483
   0.27157     11.493108
   0.25976     11.506310
   0.24796     11.521950
   0.23615     11.539987
   0.22434     11.560284
   0.21253     11.582784
   0.20073     11.607418
   0.18892     11.634123
   0.17711     11.662838
   0.16530     11.693517
   0.15350     11.726099
   0.14169     11.760550
   0.12988     11.796824
   0.11807     11.834838
   0.10627     11.874650
   0.09446     11.916165
   0.08265     11.905993
   0.07084     11.791181
   0.05904     11.676581
   0.04723     11.562219
   0.03542     11.448160
   0.02361     11.334435
   0.01181     11.221081
   0.00000     11.108138
 
# Band-Index:   43
   0.00000     12.306894
   0.01181     12.252591
   0.02361     12.199799
   0.03542     12.148545
   0.04723     12.098853
   0.05904     12.050728
   0.07084     12.004231
   0.08265     11.959368
   0.09446     12.020943
   0.10627     12.136057
   0.11807     12.251281
   0.12988     12.366520
   0.14169     12.481802
   0.15350     12.596964
   0.16530     12.711996
   0.17711     12.826816
   0.18892     12.941319
   0.20073     13.055343
   0.21253     13.168600
   0.22434     13.122470
   0.23615     12.998690
   0.24796     12.874445
   0.25976     12.750199
   0.27157     12.626038
   0.28338     12.502160
   0.29518     12.378687
   0.30699     12.255742
   0.31880     12.133425
   0.33061     12.011885
   0.34241     11.891230
   0.35422     11.771630
   0.36603     11.692420
   0.37784     11.808399
   0.38964     11.923013
   0.40145     12.036265
   0.41326     12.148004
   0.42507     12.258074
   0.43687     12.337378
   0.44868     12.308633
   0.46049     12.282334
   0.47230     12.258503
   0.48410     12.237150
   0.49591     12.218283
   0.50772     12.201921
   0.51953     12.188060
   0.53133     12.176708
   0.54314     12.167880
   0.55495     12.161569
   0.56675     12.157815
   0.57856     12.156557
   0.57856     12.156557
   0.59037     12.157815
   0.60218     12.161569
   0.61398     12.167880
   0.62579     12.176708
   0.63760     12.188060
   0.64941     12.201921
   0.66121     12.218283
   0.67302     12.237150
   0.68483     12.258503
   0.69664     12.282334
   0.70844     12.308633
   0.72025     12.337378
   0.73206     12.258074
   0.74387     12.148004
   0.75567     12.036265
   0.76748     11.923013
   0.77929     11.808399
   0.79110     11.692420
   0.80290     11.771630
   0.81471     11.891230
   0.82652     12.011885
   0.83832     12.133425
   0.85013     12.255742
   0.86194     12.378687
   0.87375     12.502160
   0.88555     12.626038
   0.89736     12.750199
   0.90917     12.874445
   0.92098     12.998690
   0.93278     13.122470
   0.94459     13.168600
   0.95640     13.055343
   0.96821     12.941319
   0.98001     12.826816
   0.99182     12.711996
   1.00363     12.596964
   1.01544     12.481802
   1.02724     12.366520
   1.03905     12.251281
   1.05086     12.136057
   1.06267     12.020943
   1.07447     11.959368
   1.08628     12.004231
   1.09809     12.050728
   1.10989     12.098853
   1.12170     12.148545
   1.13351     12.199799
   1.14532     12.252591
   1.15712     12.306894
 
# Band-Index:   44
   1.15712     12.306894
   1.14532     12.362682
   1.13351     12.419925
   1.12170     12.478591
   1.10989     12.538626
   1.09809     12.600032
   1.08628     12.662702
   1.07447     12.726584
   1.06267     12.791593
   1.05086     12.857625
   1.03905     12.924544
   1.02724     12.992147
   1.01544     13.060236
   1.00363     13.128483
   0.99182     13.196471
   0.98001     13.263636
   0.96821     13.329213
   0.95640     13.362737
   0.94459     13.244951
   0.93278     13.236004
   0.92098     13.170141
   0.90917     13.105542
   0.89736     13.042558
   0.88555     12.981209
   0.87375     12.921625
   0.86194     12.863861
   0.85013     12.808025
   0.83832     12.754192
   0.82652     12.702425
   0.81471     12.652784
   0.80290     12.605313
   0.79110     12.560097
   0.77929     12.517115
   0.76748     12.476463
   0.75567     12.438122
   0.74387     12.402144
   0.73206     12.368555
   0.72025     12.366486
   0.70844     12.473068
   0.69664     12.531912
   0.68483     12.528526
   0.67302     12.545831
   0.66121     12.581967
   0.64941     12.633738
   0.63760     12.697678
   0.62579     12.770653
   0.61398     12.843922
   0.60218     12.779468
   0.59037     12.735628
   0.57856     12.719826
   0.57856     12.719826
   0.56675     12.735628
   0.55495     12.779468
   0.54314     12.843922
   0.53133     12.770653
   0.51953     12.697678
   0.50772     12.633738
   0.49591     12.581967
   0.48410     12.545831
   0.47230     12.528526
   0.46049     12.531912
   0.44868     12.473068
   0.43687     12.366486
   0.42507     12.368555
   0.41326     12.402144
   0.40145     12.438122
   0.38964     12.476463
   0.37784     12.517115
   0.36603     12.560097
   0.35422     12.605313
   0.34241     12.652784
   0.33061     12.702425
   0.31880     12.754192
   0.30699     12.808025
   0.29518     12.863861
   0.28338     12.921625
   0.27157     12.981209
   0.25976     13.042558
   0.24796     13.105542
   0.23615     13.170141
   0.22434     13.236004
   0.21253     13.244951
   0.20073     13.362737
   0.18892     13.329213
   0.17711     13.263636
   0.16530     13.196471
   0.15350     13.128483
   0.14169     13.060236
   0.12988     12.992147
   0.11807     12.924544
   0.10627     12.857625
   0.09446     12.791593
   0.08265     12.726584
   0.07084     12.662702
   0.05904     12.600032
   0.04723     12.538626
   0.03542     12.478591
   0.02361     12.419925
   0.01181     12.362682
   0.00000     12.306894
 
# Band-Index:   45
   0.00000     13.894041
   0.01181     13.857205
   0.02361     13.821721
   0.03542     13.787628
   0.04723     13.754954
   0.05904     13.723728
   0.07084     13.693976
   0.08265     13.665713
   0.09446     13.638972
   0.10627     13.613781
   0.11807     13.590095
   0.12988     13.567898
   0.14169     13.547157
   0.15350     13.527667
   0.16530     13.508902
   0.17711     13.488768
   0.18892     13.439759
   0.20073     13.371053
   0.21253     13.303047
   0.22434     13.280454
   0.23615     13.389029
   0.24796     13.449067
   0.25976     13.445298
   0.27157     13.443191
   0.28338     13.442659
   0.29518     13.443487
   0.30699     13.441490
   0.31880     13.374486
   0.33061     13.299189
   0.34241     13.218268
   0.35422     13.134033
   0.36603     13.048087
   0.37784     12.962164
   0.38964     12.877864
   0.40145     12.796943
   0.41326     12.721418
   0.42507     12.653907
   0.43687     12.597478
   0.44868     12.555672
   0.46049     12.577735
   0.47230     12.680365
   0.48410     12.780835
   0.49591     12.879010
   0.50772     12.974724
   0.51953     12.954470
   0.53133     12.922433
   0.54314     12.850143
   0.55495     12.934328
   0.56675     13.021749
   0.57856     13.111332
   0.57856     13.111332
   0.59037     13.021749
   0.60218     12.934328
   0.61398     12.850143
   0.62579     12.922433
   0.63760     12.954470
   0.64941     12.974724
   0.66121     12.879010
   0.67302     12.780835
   0.68483     12.680365
   0.69664     12.577735
   0.70844     12.555672
   0.72025     12.597478
   0.73206     12.653907
   0.74387     12.721418
   0.75567     12.796943
   0.76748     12.877864
   0.77929     12.962164
   0.79110     13.048087
   0.80290     13.134033
   0.81471     13.218268
   0.82652     13.299189
   0.83832     13.374486
   0.85013     13.441490
   0.86194     13.443487
   0.87375     13.442659
   0.88555     13.443191
   0.89736     13.445298
   0.90917     13.449067
   0.92098     13.389029
   0.93278     13.280454
   0.94459     13.303047
   0.95640     13.371053
   0.96821     13.439759
   0.98001     13.488768
   0.99182     13.508902
   1.00363     13.527667
   1.01544     13.547157
   1.02724     13.567898
   1.03905     13.590095
   1.05086     13.613781
   1.06267     13.638972
   1.07447     13.665713
   1.08628     13.693976
   1.09809     13.723728
   1.10989     13.754954
   1.12170     13.787628
   1.13351     13.821721
   1.14532     13.857205
   1.15712     13.894041
 
# Band-Index:   46
   1.15712     13.894041
   1.14532     13.930386
   1.13351     13.903640
   1.12170     13.880240
   1.10989     13.861517
   1.09809     13.848424
   1.08628     13.841371
   1.07447     13.840696
   1.06267     13.846376
   1.05086     13.858387
   1.03905     13.840288
   1.02724     13.778534
   1.01544     13.713521
   1.00363     13.646327
   0.99182     13.577909
   0.98001     13.508835
   0.96821     13.453512
   0.95640     13.392178
   0.94459     13.451196
   0.93278     13.462537
   0.92098     13.454738
   0.90917     13.486620
   0.89736     13.545811
   0.88555     13.555877
   0.87375     13.536514
   0.86194     13.496823
   0.85013     13.445777
   0.83832     13.449315
   0.82652     13.453983
   0.81471     13.459616
   0.80290     13.466194
   0.79110     13.473439
   0.77929     13.481251
   0.76748     13.489435
   0.75567     13.497923
   0.74387     13.506526
   0.73206     13.507641
   0.72025     13.406259
   0.70844     13.310716
   0.69664     13.222383
   0.68483     13.142911
   0.67302     13.074233
   0.66121     13.018500
   0.64941     12.977928
   0.63760     13.010646
   0.62579     12.949535
   0.61398     12.963708
   0.60218     12.996475
   0.59037     13.046394
   0.57856     13.111332
   0.57856     13.111332
   0.56675     13.046394
   0.55495     12.996475
   0.54314     12.963708
   0.53133     12.949535
   0.51953     13.010646
   0.50772     12.977928
   0.49591     13.018500
   0.48410     13.074233
   0.47230     13.142911
   0.46049     13.222383
   0.44868     13.310716
   0.43687     13.406259
   0.42507     13.507641
   0.41326     13.506526
   0.40145     13.497923
   0.38964     13.489435
   0.37784     13.481251
   0.36603     13.473439
   0.35422     13.466194
   0.34241     13.459616
   0.33061     13.453983
   0.31880     13.449315
   0.30699     13.445777
   0.29518     13.496823
   0.28338     13.536514
   0.27157     13.555877
   0.25976     13.545811
   0.24796     13.486620
   0.23615     13.454738
   0.22434     13.462537
   0.21253     13.451196
   0.20073     13.392178
   0.18892     13.453512
   0.17711     13.508835
   0.16530     13.577909
   0.15350     13.646327
   0.14169     13.713521
   0.12988     13.778534
   0.11807     13.840288
   0.10627     13.858387
   0.09446     13.846376
   0.08265     13.840696
   0.07084     13.841371
   0.05904     13.848424
   0.04723     13.861517
   0.03542     13.880240
   0.02361     13.903640
   0.01181     13.930386
   0.00000     13.894041
 
# Band-Index:   47
   0.00000     13.958903
   0.01181     13.932209
   0.02361     13.971670
   0.03542     14.012402
   0.04723     14.038348
   0.05904     14.034753
   0.07084     14.017847
   0.08265     13.988065
   0.09446     13.947071
   0.10627     13.897083
   0.11807     13.876363
   0.12988     13.899886
   0.14169     13.928468
   0.15350     13.875791
   0.16530     13.755664
   0.17711     13.637549
   0.18892     13.535508
   0.20073     13.490180
   0.21253     13.473238
   0.22434     13.504746
   0.23615     13.551831
   0.24796     13.596869
   0.25976     13.663849
   0.27157     13.761129
   0.28338     13.868241
   0.29518     13.977937
   0.30699     14.088377
   0.31880     14.198981
   0.33061     14.222720
   0.34241     14.226257
   0.35422     14.187265
   0.36603     14.068899
   0.37784     13.951840
   0.38964     13.836529
   0.40145     13.723631
   0.41326     13.613738
   0.42507     13.515101
   0.43687     13.523514
   0.44868     13.531632
   0.46049     13.528699
   0.47230     13.418334
   0.48410     13.310610
   0.49591     13.206172
   0.50772     13.105802
   0.51953     13.067777
   0.53133     13.157793
   0.54314     13.244164
   0.55495     13.277472
   0.56675     13.189100
   0.57856     13.111332
   0.57856     13.111332
   0.59037     13.189100
   0.60218     13.277472
   0.61398     13.244164
   0.62579     13.157793
   0.63760     13.067777
   0.64941     13.105802
   0.66121     13.206172
   0.67302     13.310610
   0.68483     13.418334
   0.69664     13.528699
   0.70844     13.531632
   0.72025     13.523514
   0.73206     13.515101
   0.74387     13.613738
   0.75567     13.723631
   0.76748     13.836529
   0.77929     13.951840
   0.79110     14.068899
   0.80290     14.187265
   0.81471     14.226257
   0.82652     14.222720
   0.83832     14.198981
   0.85013     14.088377
   0.86194     13.977937
   0.87375     13.868241
   0.88555     13.761129
   0.89736     13.663849
   0.90917     13.596869
   0.92098     13.551831
   0.93278     13.504746
   0.94459     13.473238
   0.95640     13.490180
   0.96821     13.535508
   0.98001     13.637549
   0.99182     13.755664
   1.00363     13.875791
   1.01544     13.928468
   1.02724     13.899886
   1.03905     13.876363
   1.05086     13.897083
   1.06267     13.947071
   1.07447     13.988065
   1.08628     14.017847
   1.09809     14.034753
   1.10989     14.038348
   1.12170     14.012402
   1.13351     13.971670
   1.14532     13.932209
   1.15712     13.958903
 
# Band-Index:   48
   1.15712     13.958903
   1.14532     13.986884
   1.13351     14.011562
   1.12170     14.029767
   1.10989     14.054344
   1.09809     14.097471
   1.08628     14.141729
   1.07447     14.187103
   1.06267     14.233531
   1.05086     14.256180
   1.03905     14.229089
   1.02724     14.113490
   1.01544     13.995426
   1.00363     13.961514
   0.99182     13.998420
   0.98001     14.038531
   0.96821     14.081160
   0.95640     14.125585
   0.94459     14.171051
   0.93278     14.186168
   0.92098     14.187489
   0.90917     14.189946
   0.89736     14.193435
   0.88555     14.197696
   0.87375     14.202566
   0.86194     14.207764
   0.85013     14.213096
   0.83832     14.218191
   0.82652     14.309542
   0.81471     14.306268
   0.80290     14.228368
   0.79110     14.228553
   0.77929     14.226294
   0.76748     14.221039
   0.75567     14.105034
   0.74387     13.987696
   0.73206     13.871066
   0.72025     13.755472
   0.70844     13.641235
   0.69664     13.539333
   0.68483     13.546575
   0.67302     13.553239
   0.66121     13.559255
   0.64941     13.564568
   0.63760     13.567453
   0.62579     13.476866
   0.61398     13.374445
   0.60218     13.293835
   0.59037     13.202248
   0.57856     13.111332
   0.57856     13.111332
   0.56675     13.202248
   0.55495     13.293835
   0.54314     13.374445
   0.53133     13.476866
   0.51953     13.567453
   0.50772     13.564568
   0.49591     13.559255
   0.48410     13.553239
   0.47230     13.546575
   0.46049     13.539333
   0.44868     13.641235
   0.43687     13.755472
   0.42507     13.871066
   0.41326     13.987696
   0.40145     14.105034
   0.38964     14.221039
   0.37784     14.226294
   0.36603     14.228553
   0.35422     14.228368
   0.34241     14.306268
   0.33061     14.309542
   0.31880     14.218191
   0.30699     14.213096
   0.29518     14.207764
   0.28338     14.202566
   0.27157     14.197696
   0.25976     14.193435
   0.24796     14.189946
   0.23615     14.187489
   0.22434     14.186168
   0.21253     14.171051
   0.20073     14.125585
   0.18892     14.081160
   0.17711     14.038531
   0.16530     13.998420
   0.15350     13.961514
   0.14169     13.995426
   0.12988     14.113490
   0.11807     14.229089
   0.10627     14.256180
   0.09446     14.233531
   0.08265     14.187103
   0.07084     14.141729
   0.05904     14.097471
   0.04723     14.054344
   0.03542     14.029767
   0.02361     14.011562
   0.01181     13.986884
   0.00000     13.958903
 
# Band-Index:   49
   0.00000     14.472568
   0.01181     14.440996
   0.02361     14.411301
   0.03542     14.383494
   0.04723     14.357576
   0.05904     14.333546
   0.07084     14.311402
   0.08265     14.291118
   0.09446     14.272718
   0.10627     14.280964
   0.11807     14.241474
   0.12988     14.228564
   0.14169     14.217472
   0.15350     14.208128
   0.16530     14.200502
   0.17711     14.194548
   0.18892     14.190207
   0.20073     14.187415
   0.21253     14.186093
   0.22434     14.216776
   0.23615     14.261868
   0.24796     14.305443
   0.25976     14.346535
   0.27157     14.384111
   0.28338     14.417148
   0.29518     14.444579
   0.30699     14.465373
   0.31880     14.478598
   0.33061     14.425105
   0.34241     14.419888
   0.35422     14.466253
   0.36603     14.443822
   0.37784     14.340721
   0.38964     14.222800
   0.40145     14.212283
   0.41326     14.199511
   0.42507     14.182217
   0.43687     14.141221
   0.44868     14.069209
   0.46049     13.992934
   0.47230     13.913012
   0.48410     13.830010
   0.49591     13.744439
   0.50772     13.656771
   0.51953     13.569173
   0.53133     13.478287
   0.54314     13.385542
   0.55495     13.325374
   0.56675     13.396159
   0.57856     13.432021
   0.57856     13.432021
   0.59037     13.396159
   0.60218     13.325374
   0.61398     13.385542
   0.62579     13.478287
   0.63760     13.569173
   0.64941     13.656771
   0.66121     13.744439
   0.67302     13.830010
   0.68483     13.913012
   0.69664     13.992934
   0.70844     14.069209
   0.72025     14.141221
   0.73206     14.182217
   0.74387     14.199511
   0.75567     14.212283
   0.76748     14.222800
   0.77929     14.340721
   0.79110     14.443822
   0.80290     14.466253
   0.81471     14.419888
   0.82652     14.425105
   0.83832     14.478598
   0.85013     14.465373
   0.86194     14.444579
   0.87375     14.417148
   0.88555     14.384111
   0.89736     14.346535
   0.90917     14.305443
   0.92098     14.261868
   0.93278     14.216776
   0.94459     14.186093
   0.95640     14.187415
   0.96821     14.190207
   0.98001     14.194548
   0.99182     14.200502
   1.00363     14.208128
   1.01544     14.217472
   1.02724     14.228564
   1.03905     14.241474
   1.05086     14.280964
   1.06267     14.272718
   1.07447     14.291118
   1.08628     14.311402
   1.09809     14.333546
   1.10989     14.357576
   1.12170     14.383494
   1.13351     14.411301
   1.14532     14.440996
   1.15712     14.472568
 
# Band-Index:   50
   1.15712     14.472568
   1.14532     14.506026
   1.13351     14.541355
   1.12170     14.578560
   1.10989     14.617597
   1.09809     14.658465
   1.08628     14.643231
   1.07447     14.549756
   1.06267     14.448569
   1.05086     14.341195
   1.03905     14.329328
   1.02724     14.378591
   1.01544     14.428699
   1.00363     14.479487
   0.99182     14.530885
   0.98001     14.582734
   0.96821     14.634838
   0.95640     14.686866
   0.94459     14.738395
   0.93278     14.788567
   0.92098     14.771102
   0.90917     14.723265
   0.89736     14.693675
   0.88555     14.684810
   0.87375     14.697478
   0.86194     14.730247
   0.85013     14.656686
   0.83832     14.542699
   0.82652     14.483484
   0.81471     14.479465
   0.80290     14.530099
   0.79110     14.458526
   0.77929     14.412428
   0.76748     14.372511
   0.75567     14.324700
   0.74387     14.269701
   0.73206     14.208293
   0.72025     14.160149
   0.70844     14.132982
   0.69664     14.100580
   0.68483     14.057901
   0.67302     13.937001
   0.66121     13.817865
   0.64941     13.701128
   0.63760     13.587552
   0.62579     13.572949
   0.61398     13.575908
   0.60218     13.578038
   0.59037     13.579320
   0.57856     13.579982
   0.57856     13.579982
   0.56675     13.579320
   0.55495     13.578038
   0.54314     13.575908
   0.53133     13.572949
   0.51953     13.587552
   0.50772     13.701128
   0.49591     13.817865
   0.48410     13.937001
   0.47230     14.057901
   0.46049     14.100580
   0.44868     14.132982
   0.43687     14.160149
   0.42507     14.208293
   0.41326     14.269701
   0.40145     14.324700
   0.38964     14.372511
   0.37784     14.412428
   0.36603     14.458526
   0.35422     14.530099
   0.34241     14.479465
   0.33061     14.483484
   0.31880     14.542699
   0.30699     14.656686
   0.29518     14.730247
   0.28338     14.697478
   0.27157     14.684810
   0.25976     14.693675
   0.24796     14.723265
   0.23615     14.771102
   0.22434     14.788567
   0.21253     14.738395
   0.20073     14.686866
   0.18892     14.634838
   0.17711     14.582734
   0.16530     14.530885
   0.15350     14.479487
   0.14169     14.428699
   0.12988     14.378591
   0.11807     14.329328
   0.10627     14.341195
   0.09446     14.448569
   0.08265     14.549756
   0.07084     14.643231
   0.05904     14.658465
   0.04723     14.617597
   0.03542     14.578560
   0.02361     14.541355
   0.01181     14.506026
   0.00000     14.472568
 
# Band-Index:   51
   0.00000     15.024771
   0.01181     14.978003
   0.02361     14.926417
   0.03542     14.868485
   0.04723     14.802634
   0.05904     14.727662
   0.07084     14.701117
   0.08265     14.745595
   0.09446     14.791833
   0.10627     14.839806
   0.11807     14.889457
   0.12988     14.940773
   0.14169     14.993683
   0.15350     14.973356
   0.16530     14.951273
   0.17711     14.931707
   0.18892     14.914441
   0.20073     14.899332
   0.21253     14.886288
   0.22434     14.833730
   0.23615     14.835808
   0.24796     14.859285
   0.25976     14.854345
   0.27157     14.851490
   0.28338     14.849932
   0.29518     14.762599
   0.30699     14.780255
   0.31880     14.844424
   0.33061     14.808528
   0.34241     14.692616
   0.35422     14.575826
   0.36603     14.639992
   0.37784     14.749640
   0.38964     14.859036
   0.40145     14.790339
   0.41326     14.669756
   0.42507     14.547971
   0.43687     14.425444
   0.44868     14.302621
   0.46049     14.179948
   0.47230     14.062948
   0.48410     14.020150
   0.49591     13.972371
   0.50772     13.919892
   0.51953     13.863094
   0.53133     13.802437
   0.54314     13.738718
   0.55495     13.673587
   0.56675     13.612403
   0.57856     13.579982
   0.57856     13.579982
   0.59037     13.612403
   0.60218     13.673587
   0.61398     13.738718
   0.62579     13.802437
   0.63760     13.863094
   0.64941     13.919892
   0.66121     13.972371
   0.67302     14.020150
   0.68483     14.062948
   0.69664     14.179948
   0.70844     14.302621
   0.72025     14.425444
   0.73206     14.547971
   0.74387     14.669756
   0.75567     14.790339
   0.76748     14.859036
   0.77929     14.749640
   0.79110     14.639992
   0.80290     14.575826
   0.81471     14.692616
   0.82652     14.808528
   0.83832     14.844424
   0.85013     14.780255
   0.86194     14.762599
   0.87375     14.849932
   0.88555     14.851490
   0.89736     14.854345
   0.90917     14.859285
   0.92098     14.835808
   0.93278     14.833730
   0.94459     14.886288
   0.95640     14.899332
   0.96821     14.914441
   0.98001     14.931707
   0.99182     14.951273
   1.00363     14.973356
   1.01544     14.993683
   1.02724     14.940773
   1.03905     14.889457
   1.05086     14.839806
   1.06267     14.791833
   1.07447     14.745595
   1.08628     14.701117
   1.09809     14.727662
   1.10989     14.802634
   1.12170     14.868485
   1.13351     14.926417
   1.14532     14.978003
   1.15712     15.024771
 
# Band-Index:   52
   1.15712     15.024771
   1.14532     15.068070
   1.13351     15.108904
   1.12170     15.125066
   1.10989     15.104545
   1.09809     15.102641
   1.08628     15.120140
   1.07447     15.156251
   1.06267     15.138122
   1.05086     15.095442
   1.03905     15.058558
   1.02724     15.026443
   1.01544     14.998274
   1.00363     15.048112
   0.99182     15.103966
   0.98001     15.161137
   0.96821     15.078346
   0.95640     14.989957
   0.94459     14.907631
   0.93278     14.875311
   0.92098     14.866290
   0.90917     14.876791
   0.89736     14.903590
   0.88555     14.899895
   0.87375     14.850800
   0.86194     14.852210
   0.85013     14.856097
   0.83832     14.862406
   0.82652     14.871240
   0.81471     14.882682
   0.80290     14.896855
   0.79110     14.913833
   0.77929     14.933692
   0.76748     14.909207
   0.75567     14.968177
   0.74387     15.010946
   0.73206     15.042621
   0.72025     15.077047
   0.70844     15.114084
   0.69664     15.153437
   0.68483     15.194765
   0.67302     15.237503
   0.66121     15.280873
   0.64941     15.324006
   0.63760     15.365590
   0.62579     15.404022
   0.61398     15.437327
   0.60218     15.463406
   0.59037     15.480091
   0.57856     15.485864
   0.57856     15.485864
   0.56675     15.480091
   0.55495     15.463406
   0.54314     15.437327
   0.53133     15.404022
   0.51953     15.365590
   0.50772     15.324006
   0.49591     15.280873
   0.48410     15.237503
   0.47230     15.194765
   0.46049     15.153437
   0.44868     15.114084
   0.43687     15.077047
   0.42507     15.042621
   0.41326     15.010946
   0.40145     14.968177
   0.38964     14.909207
   0.37784     14.933692
   0.36603     14.913833
   0.35422     14.896855
   0.34241     14.882682
   0.33061     14.871240
   0.31880     14.862406
   0.30699     14.856097
   0.29518     14.852210
   0.28338     14.850800
   0.27157     14.899895
   0.25976     14.903590
   0.24796     14.876791
   0.23615     14.866290
   0.22434     14.875311
   0.21253     14.907631
   0.20073     14.989957
   0.18892     15.078346
   0.17711     15.161137
   0.16530     15.103966
   0.15350     15.048112
   0.14169     14.998274
   0.12988     15.026443
   0.11807     15.058558
   0.10627     15.095442
   0.09446     15.138122
   0.08265     15.156251
   0.07084     15.120140
   0.05904     15.102641
   0.04723     15.104545
   0.03542     15.125066
   0.02361     15.108904
   0.01181     15.068070
   0.00000     15.024771
 
# Band-Index:   53
   0.00000     15.274532
   0.01181     15.212851
   0.02361     15.162098
   0.03542     15.148037
   0.04723     15.186033
   0.05904     15.223305
   0.07084     15.246874
   0.08265     15.188146
   0.09446     15.208981
   0.10627     15.275813
   0.11807     15.354266
   0.12988     15.442269
   0.14169     15.462690
   0.15350     15.364158
   0.16530     15.266652
   0.17711     15.171028
   0.18892     15.219437
   0.20073     15.278605
   0.21253     15.338308
   0.22434     15.398007
   0.23615     15.456839
   0.24796     15.409160
   0.25976     15.313514
   0.27157     15.248340
   0.28338     15.229801
   0.29518     15.148592
   0.30699     15.036754
   0.31880     14.923321
   0.33061     14.919584
   0.34241     15.003505
   0.35422     15.094400
   0.36603     15.139261
   0.37784     15.025766
   0.38964     14.956462
   0.40145     14.982224
   0.41326     15.077010
   0.42507     15.185523
   0.43687     15.293658
   0.44868     15.401346
   0.46049     15.508509
   0.47230     15.615036
   0.48410     15.720917
   0.49591     15.825799
   0.50772     15.929600
   0.51953     16.026377
   0.53133     16.047274
   0.54314     16.067127
   0.55495     16.083777
   0.56675     16.094823
   0.57856     16.098827
   0.57856     16.098827
   0.59037     16.094823
   0.60218     16.083777
   0.61398     16.067127
   0.62579     16.047274
   0.63760     16.026377
   0.64941     15.929600
   0.66121     15.825799
   0.67302     15.720917
   0.68483     15.615036
   0.69664     15.508509
   0.70844     15.401346
   0.72025     15.293658
   0.73206     15.185523
   0.74387     15.077010
   0.75567     14.982224
   0.76748     14.956462
   0.77929     15.025766
   0.79110     15.139261
   0.80290     15.094400
   0.81471     15.003505
   0.82652     14.919584
   0.83832     14.923321
   0.85013     15.036754
   0.86194     15.148592
   0.87375     15.229801
   0.88555     15.248340
   0.89736     15.313514
   0.90917     15.409160
   0.92098     15.456839
   0.93278     15.398007
   0.94459     15.338308
   0.95640     15.278605
   0.96821     15.219437
   0.98001     15.171028
   0.99182     15.266652
   1.00363     15.364158
   1.01544     15.462690
   1.02724     15.442269
   1.03905     15.354266
   1.05086     15.275813
   1.06267     15.208981
   1.07447     15.188146
   1.08628     15.246874
   1.09809     15.223305
   1.10989     15.186033
   1.12170     15.148037
   1.13351     15.162098
   1.14532     15.212851
   1.15712     15.274532
 
# Band-Index:   54
   1.15712     15.274532
   1.14532     15.344704
   1.13351     15.421450
   1.12170     15.482944
   1.10989     15.394293
   1.09809     15.315430
   1.08628     15.260115
   1.07447     15.296797
   1.06267     15.333440
   1.05086     15.370193
   1.03905     15.407108
   1.02724     15.444342
   1.01544     15.481920
   1.00363     15.519831
   0.99182     15.558070
   0.98001     15.596502
   0.96821     15.634683
   0.95640     15.670843
   0.94459     15.691396
   0.93278     15.627207
   0.92098     15.517920
   0.90917     15.513350
   0.89736     15.472060
   0.88555     15.366530
   0.87375     15.258599
   0.86194     15.249186
   0.85013     15.287975
   0.83832     15.335550
   0.82652     15.387406
   0.81471     15.352334
   0.80290     15.248637
   0.79110     15.190931
   0.77929     15.292103
   0.76748     15.397167
   0.75567     15.505767
   0.74387     15.617048
   0.73206     15.730883
   0.72025     15.846954
   0.70844     15.944630
   0.69664     15.959650
   0.68483     15.964366
   0.67302     15.974215
   0.66121     15.988495
   0.64941     16.006281
   0.63760     16.032254
   0.62579     16.133364
   0.61398     16.232796
   0.60218     16.330240
   0.59037     16.425346
   0.57856     16.517700
   0.57856     16.517700
   0.56675     16.425346
   0.55495     16.330240
   0.54314     16.232796
   0.53133     16.133364
   0.51953     16.032254
   0.50772     16.006281
   0.49591     15.988495
   0.48410     15.974215
   0.47230     15.964366
   0.46049     15.959650
   0.44868     15.944630
   0.43687     15.846954
   0.42507     15.730883
   0.41326     15.617048
   0.40145     15.505767
   0.38964     15.397167
   0.37784     15.292103
   0.36603     15.190931
   0.35422     15.248637
   0.34241     15.352334
   0.33061     15.387406
   0.31880     15.335550
   0.30699     15.287975
   0.29518     15.249186
   0.28338     15.258599
   0.27157     15.366530
   0.25976     15.472060
   0.24796     15.513350
   0.23615     15.517920
   0.22434     15.627207
   0.21253     15.691396
   0.20073     15.670843
   0.18892     15.634683
   0.17711     15.596502
   0.16530     15.558070
   0.15350     15.519831
   0.14169     15.481920
   0.12988     15.444342
   0.11807     15.407108
   0.10627     15.370193
   0.09446     15.333440
   0.08265     15.296797
   0.07084     15.260115
   0.05904     15.315430
   0.04723     15.394293
   0.03542     15.482944
   0.02361     15.421450
   0.01181     15.344704
   0.00000     15.274532
 
# Band-Index:   55
   0.00000     15.792647
   0.01181     15.683877
   0.02361     15.580051
   0.03542     15.503134
   0.04723     15.588600
   0.05904     15.676887
   0.07084     15.767252
   0.08265     15.858991
   0.09446     15.853279
   0.10627     15.757403
   0.11807     15.659928
   0.12988     15.561460
   0.14169     15.537939
   0.15350     15.639959
   0.16530     15.747294
   0.17711     15.859085
   0.18892     15.974673
   0.20073     15.898871
   0.21253     15.797218
   0.22434     15.772765
   0.23615     15.675467
   0.24796     15.575124
   0.25976     15.564978
   0.27157     15.607107
   0.28338     15.631933
   0.29518     15.629473
   0.30699     15.594286
   0.31880     15.530828
   0.33061     15.447818
   0.34241     15.441628
   0.35422     15.497076
   0.36603     15.553202
   0.37784     15.609634
   0.38964     15.666119
   0.40145     15.722510
   0.41326     15.778624
   0.42507     15.834391
   0.43687     15.889742
   0.44868     15.960673
   0.46049     15.999024
   0.47230     16.052911
   0.48410     16.106290
   0.49591     16.159171
   0.50772     16.211588
   0.51953     16.263530
   0.53133     16.315039
   0.54314     16.366177
   0.55495     16.416972
   0.56675     16.467465
   0.57856     16.517700
   0.57856     16.517700
   0.59037     16.467465
   0.60218     16.416972
   0.61398     16.366177
   0.62579     16.315039
   0.63760     16.263530
   0.64941     16.211588
   0.66121     16.159171
   0.67302     16.106290
   0.68483     16.052911
   0.69664     15.999024
   0.70844     15.960673
   0.72025     15.889742
   0.73206     15.834391
   0.74387     15.778624
   0.75567     15.722510
   0.76748     15.666119
   0.77929     15.609634
   0.79110     15.553202
   0.80290     15.497076
   0.81471     15.441628
   0.82652     15.447818
   0.83832     15.530828
   0.85013     15.594286
   0.86194     15.629473
   0.87375     15.631933
   0.88555     15.607107
   0.89736     15.564978
   0.90917     15.575124
   0.92098     15.675467
   0.93278     15.772765
   0.94459     15.797218
   0.95640     15.898871
   0.96821     15.974673
   0.98001     15.859085
   0.99182     15.747294
   1.00363     15.639959
   1.01544     15.537939
   1.02724     15.561460
   1.03905     15.659928
   1.05086     15.757403
   1.06267     15.853279
   1.07447     15.858991
   1.08628     15.767252
   1.09809     15.676887
   1.10989     15.588600
   1.12170     15.503134
   1.13351     15.580051
   1.14532     15.683877
   1.15712     15.792647
 
# Band-Index:   56
   1.15712     15.792647
   1.14532     15.904793
   1.13351     16.018856
   1.12170     16.133506
   1.10989     16.207163
   1.09809     16.124610
   1.08628     16.037649
   1.07447     15.946931
   1.06267     15.951514
   1.05086     16.044261
   1.03905     16.136654
   1.02724     16.228061
   1.01544     16.317826
   1.00363     16.276282
   0.99182     16.203720
   0.98001     16.126008
   0.96821     16.016844
   0.95640     15.957191
   0.94459     15.866768
   0.93278     15.782253
   0.92098     15.816256
   0.90917     15.857230
   0.89736     15.900540
   0.88555     15.945359
   0.87375     15.991400
   0.86194     16.038595
   0.85013     16.086956
   0.83832     16.136445
   0.82652     16.187150
   0.81471     16.216558
   0.80290     16.170304
   0.79110     16.127333
   0.77929     16.088209
   0.76748     16.053383
   0.75567     16.023556
   0.74387     15.999083
   0.73206     15.980328
   0.72025     15.967511
   0.70844     15.965142
   0.69664     16.085293
   0.68483     16.207114
   0.67302     16.330713
   0.66121     16.455616
   0.64941     16.581738
   0.63760     16.709202
   0.62579     16.716960
   0.61398     16.667310
   0.60218     16.617578
   0.59037     16.567724
   0.57856     16.517700
   0.57856     16.517700
   0.56675     16.567723
   0.55495     16.617578
   0.54314     16.667310
   0.53133     16.716960
   0.51953     16.709202
   0.50772     16.581738
   0.49591     16.455616
   0.48410     16.330713
   0.47230     16.207114
   0.46049     16.085293
   0.44868     15.965142
   0.43687     15.967511
   0.42507     15.980328
   0.41326     15.999083
   0.40145     16.023556
   0.38964     16.053383
   0.37784     16.088209
   0.36603     16.127333
   0.35422     16.170304
   0.34241     16.216558
   0.33061     16.187150
   0.31880     16.136445
   0.30699     16.086956
   0.29518     16.038595
   0.28338     15.991400
   0.27157     15.945359
   0.25976     15.900540
   0.24796     15.857230
   0.23615     15.816256
   0.22434     15.782253
   0.21253     15.866768
   0.20073     15.957191
   0.18892     16.016844
   0.17711     16.126008
   0.16530     16.203720
   0.15350     16.276282
   0.14169     16.317826
   0.12988     16.228061
   0.11807     16.136654
   0.10627     16.044261
   0.09446     15.951514
   0.08265     15.946931
   0.07084     16.037649
   0.05904     16.124610
   0.04723     16.207163
   0.03542     16.133506
   0.02361     16.018856
   0.01181     15.904793
   0.00000     15.792647
 
# Band-Index:   57
   0.00000     16.474141
   0.01181     16.418818
   0.02361     16.355188
   0.03542     16.284261
   0.04723     16.247021
   0.05904     16.357327
   0.07084     16.460873
   0.08265     16.551864
   0.09446     16.542352
   0.10627     16.504400
   0.11807     16.458037
   0.12988     16.404179
   0.14169     16.343365
   0.15350     16.367741
   0.16530     16.254199
   0.17711     16.136362
   0.18892     16.043721
   0.20073     16.093526
   0.21253     16.215214
   0.22434     16.339378
   0.23615     16.406154
   0.24796     16.333967
   0.25976     16.263947
   0.27157     16.200852
   0.28338     16.152593
   0.29518     16.129567
   0.30699     16.136962
   0.31880     16.170779
   0.33061     16.222289
   0.34241     16.239059
   0.35422     16.292189
   0.36603     16.346549
   0.37784     16.402211
   0.38964     16.459010
   0.40145     16.517084
   0.41326     16.576154
   0.42507     16.636236
   0.43687     16.697202
   0.44868     16.758879
   0.46049     16.821049
   0.47230     16.883429
   0.48410     16.898020
   0.49591     16.851118
   0.50772     16.805611
   0.51953     16.762486
   0.53133     16.723052
   0.54314     16.688976
   0.55495     16.662281
   0.56675     16.606794
   0.57856     16.517700
   0.57856     16.517700
   0.59037     16.606794
   0.60218     16.662281
   0.61398     16.688976
   0.62579     16.723052
   0.63760     16.762486
   0.64941     16.805611
   0.66121     16.851118
   0.67302     16.898020
   0.68483     16.883429
   0.69664     16.821049
   0.70844     16.758879
   0.72025     16.697202
   0.73206     16.636236
   0.74387     16.576154
   0.75567     16.517084
   0.76748     16.459010
   0.77929     16.402211
   0.79110     16.346549
   0.80290     16.292189
   0.81471     16.239059
   0.82652     16.222289
   0.83832     16.170779
   0.85013     16.136962
   0.86194     16.129567
   0.87375     16.152593
   0.88555     16.200852
   0.89736     16.263947
   0.90917     16.333967
   0.92098     16.406154
   0.93278     16.339378
   0.94459     16.215214
   0.95640     16.093526
   0.96821     16.043721
   0.98001     16.136362
   0.99182     16.254199
   1.00363     16.367741
   1.01544     16.343365
   1.02724     16.404179
   1.03905     16.458037
   1.05086     16.504400
   1.06267     16.542352
   1.07447     16.551864
   1.08628     16.460873
   1.09809     16.357327
   1.10989     16.247021
   1.12170     16.284261
   1.13351     16.355188
   1.14532     16.418818
   1.15712     16.474141
 
# Band-Index:   58
   1.15712     16.474141
   1.14532     16.520194
   1.13351     16.556131
   1.12170     16.581303
   1.10989     16.595504
   1.09809     16.598265
   1.08628     16.589988
   1.07447     16.571134
   1.06267     16.619368
   1.05086     16.647838
   1.03905     16.626919
   1.02724     16.563476
   1.01544     16.473149
   1.00363     16.405135
   0.99182     16.489038
   0.98001     16.568377
   0.96821     16.641748
   0.95640     16.614449
   0.94459     16.547587
   0.93278     16.477863
   0.92098     16.465718
   0.90917     16.593930
   0.89736     16.587774
   0.88555     16.533122
   0.87375     16.478237
   0.86194     16.423529
   0.85013     16.369535
   0.83832     16.316730
   0.82652     16.265557
   0.81471     16.284799
   0.80290     16.354100
   0.79110     16.427794
   0.77929     16.504400
   0.76748     16.582903
   0.75567     16.662514
   0.74387     16.742483
   0.73206     16.821998
   0.72025     16.899843
   0.70844     16.972347
   0.69664     16.993162
   0.68483     16.945552
   0.67302     16.914822
   0.66121     16.865538
   0.64941     16.816143
   0.63760     16.766560
   0.62579     16.778353
   0.61398     16.719965
   0.60218     16.675982
   0.59037     16.645092
   0.57856     16.639146
   0.57856     16.639146
   0.56675     16.645092
   0.55495     16.675982
   0.54314     16.719965
   0.53133     16.778353
   0.51953     16.766560
   0.50772     16.816143
   0.49591     16.865538
   0.48410     16.914822
   0.47230     16.945552
   0.46049     16.993162
   0.44868     16.972347
   0.43687     16.899843
   0.42507     16.821998
   0.41326     16.742483
   0.40145     16.662514
   0.38964     16.582903
   0.37784     16.504400
   0.36603     16.427794
   0.35422     16.354100
   0.34241     16.284799
   0.33061     16.265557
   0.31880     16.316730
   0.30699     16.369535
   0.29518     16.423529
   0.28338     16.478237
   0.27157     16.533122
   0.25976     16.587774
   0.24796     16.593930
   0.23615     16.465718
   0.22434     16.477863
   0.21253     16.547587
   0.20073     16.614449
   0.18892     16.641748
   0.17711     16.568377
   0.16530     16.489038
   0.15350     16.405135
   0.14169     16.473149
   0.12988     16.563476
   0.11807     16.626919
   0.10627     16.647838
   0.09446     16.619368
   0.08265     16.571134
   0.07084     16.589988
   0.05904     16.598265
   0.04723     16.595504
   0.03542     16.581303
   0.02361     16.556131
   0.01181     16.520194
   0.00000     16.474141
 
# Band-Index:   59
   0.00000     17.195914
   0.01181     17.188743
   0.02361     17.178488
   0.03542     17.165146
   0.04723     17.148610
   0.05904     17.128858
   0.07084     17.105678
   0.08265     17.079315
   0.09446     17.049502
   0.10627     17.016172
   0.11807     16.979236
   0.12988     16.938536
   0.14169     16.894134
   0.15350     16.845893
   0.16530     16.793770
   0.17711     16.737767
   0.18892     16.677942
   0.20073     16.707484
   0.21253     16.763730
   0.22434     16.746090
   0.23615     16.694609
   0.24796     16.641682
   0.25976     16.723844
   0.27157     16.855302
   0.28338     16.859549
   0.29518     16.849839
   0.30699     16.840807
   0.31880     16.834986
   0.33061     16.834275
   0.34241     16.839916
   0.35422     16.852566
   0.36603     16.872173
   0.37784     16.898194
   0.38964     16.929454
   0.40145     16.964214
   0.41326     17.000098
   0.42507     17.034188
   0.43687     17.062955
   0.44868     17.040474
   0.46049     17.002503
   0.47230     16.962998
   0.48410     16.945668
   0.49591     17.007474
   0.50772     16.929684
   0.51953     16.848916
   0.53133     16.837617
   0.54314     16.772529
   0.55495     16.692000
   0.56675     16.648493
   0.57856     16.639146
   0.57856     16.639146
   0.59037     16.648493
   0.60218     16.692000
   0.61398     16.772529
   0.62579     16.837617
   0.63760     16.848916
   0.64941     16.929684
   0.66121     17.007474
   0.67302     16.945668
   0.68483     16.962998
   0.69664     17.002503
   0.70844     17.040474
   0.72025     17.062955
   0.73206     17.034188
   0.74387     17.000098
   0.75567     16.964214
   0.76748     16.929454
   0.77929     16.898194
   0.79110     16.872173
   0.80290     16.852566
   0.81471     16.839916
   0.82652     16.834275
   0.83832     16.834986
   0.85013     16.840807
   0.86194     16.849839
   0.87375     16.859549
   0.88555     16.855302
   0.89736     16.723844
   0.90917     16.641682
   0.92098     16.694609
   0.93278     16.746090
   0.94459     16.763730
   0.95640     16.707484
   0.96821     16.677942
   0.98001     16.737767
   0.99182     16.793771
   1.00363     16.845893
   1.01544     16.894134
   1.02724     16.938536
   1.03905     16.979236
   1.05086     17.016172
   1.06267     17.049502
   1.07447     17.079315
   1.08628     17.105678
   1.09809     17.128859
   1.10989     17.148610
   1.12170     17.165146
   1.13351     17.178488
   1.14532     17.188743
   1.15712     17.195914
 
# Band-Index:   60
   1.15712     17.195914
   1.14532     17.200001
   1.13351     17.201062
   1.12170     17.199077
   1.10989     17.194037
   1.09809     17.185927
   1.08628     17.174746
   1.07447     17.160233
   1.06267     17.142743
   1.05086     17.122069
   1.03905     17.098173
   1.02724     17.071048
   1.01544     17.040666
   1.00363     17.007146
   0.99182     16.970511
   0.98001     16.930871
   0.96821     16.888379
   0.95640     16.843233
   0.94459     16.795679
   0.93278     16.808769
   0.92098     16.841095
   0.90917     16.860588
   0.89736     16.868322
   0.88555     16.866845
   0.87375     16.988070
   0.86194     17.121985
   0.85013     17.256899
   0.83832     17.392663
   0.82652     17.467551
   0.81471     17.428156
   0.80290     17.388368
   0.79110     17.347968
   0.77929     17.306824
   0.76748     17.264730
   0.75567     17.221792
   0.74387     17.177870
   0.73206     17.133060
   0.72025     17.087210
   0.70844     17.079599
   0.69664     17.073306
   0.68483     17.082724
   0.67302     17.060353
   0.66121     17.018994
   0.64941     16.974707
   0.63760     16.915312
   0.62579     16.847392
   0.61398     16.966900
   0.60218     17.096678
   0.59037     17.226544
   0.57856     17.355879
   0.57856     17.355879
   0.56675     17.226544
   0.55495     17.096678
   0.54314     16.966901
   0.53133     16.847392
   0.51953     16.915312
   0.50772     16.974707
   0.49591     17.018994
   0.48410     17.060353
   0.47230     17.082724
   0.46049     17.073306
   0.44868     17.079599
   0.43687     17.087210
   0.42507     17.133060
   0.41326     17.177870
   0.40145     17.221792
   0.38964     17.264730
   0.37784     17.306824
   0.36603     17.347968
   0.35422     17.388368
   0.34241     17.428157
   0.33061     17.467551
   0.31880     17.392663
   0.30699     17.256899
   0.29518     17.121985
   0.28338     16.988070
   0.27157     16.866845
   0.25976     16.868322
   0.24796     16.860588
   0.23615     16.841095
   0.22434     16.808769
   0.21253     16.795679
   0.20073     16.843233
   0.18892     16.888379
   0.17711     16.930871
   0.16530     16.970511
   0.15350     17.007146
   0.14169     17.040666
   0.12988     17.071048
   0.11807     17.098173
   0.10627     17.122069
   0.09446     17.142743
   0.08265     17.160233
   0.07084     17.174746
   0.05904     17.185928
   0.04723     17.194037
   0.03542     17.199077
   0.02361     17.201063
   0.01181     17.200001
   0.00000     17.195914
 
# Band-Index:   61
   0.00000     18.239836
   0.01181     18.113910
   0.02361     17.988856
   0.03542     17.865423
   0.04723     17.744622
   0.05904     17.628285
   0.07084     17.519326
   0.08265     17.424278
   0.09446     17.353284
   0.10627     17.321947
   0.11807     17.340551
   0.12988     17.402213
   0.14169     17.491525
   0.15350     17.596278
   0.16530     17.710011
   0.17711     17.829142
   0.18892     17.951718
   0.20073     17.924610
   0.21253     17.876052
   0.22434     17.832276
   0.23615     17.788366
   0.24796     17.745761
   0.25976     17.704354
   0.27157     17.663793
   0.28338     17.623947
   0.29518     17.584560
   0.30699     17.545517
   0.31880     17.506606
   0.33061     17.529135
   0.34241     17.564363
   0.35422     17.505420
   0.36603     17.447845
   0.37784     17.391339
   0.38964     17.336139
   0.40145     17.281995
   0.41326     17.228835
   0.42507     17.176719
   0.43687     17.126054
   0.44868     17.082676
   0.46049     17.089998
   0.47230     17.133246
   0.48410     17.115506
   0.49591     17.023734
   0.50772     17.068055
   0.51953     17.126746
   0.53133     17.182673
   0.54314     17.234961
   0.55495     17.282423
   0.56675     17.323265
   0.57856     17.355879
   0.57856     17.355879
   0.59037     17.323265
   0.60218     17.282423
   0.61398     17.234961
   0.62579     17.182673
   0.63760     17.126746
   0.64941     17.068055
   0.66121     17.023734
   0.67302     17.115506
   0.68483     17.133246
   0.69664     17.089998
   0.70844     17.082676
   0.72025     17.126054
   0.73206     17.176719
   0.74387     17.228834
   0.75567     17.281995
   0.76748     17.336139
   0.77929     17.391338
   0.79110     17.447845
   0.80290     17.505422
   0.81471     17.564362
   0.82652     17.529135
   0.83832     17.506606
   0.85013     17.545516
   0.86194     17.584560
   0.87375     17.623946
   0.88555     17.663793
   0.89736     17.704354
   0.90917     17.745763
   0.92098     17.788366
   0.93278     17.832277
   0.94459     17.876051
   0.95640     17.924608
   0.96821     17.951699
   0.98001     17.829142
   0.99182     17.710008
   1.00363     17.596278
   1.01544     17.491525
   1.02724     17.402213
   1.03905     17.340550
   1.05086     17.321947
   1.06267     17.353284
   1.07447     17.424278
   1.08628     17.519326
   1.09809     17.628287
   1.10989     17.744620
   1.12170     17.865425
   1.13351     17.988849
   1.14532     18.113952
   1.15712     18.239831
 
# Band-Index:   62
   1.15712     18.239939
   1.14532     18.366140
   1.13351     18.492503
   1.12170     18.618206
   1.10989     18.657961
   1.09809     18.599067
   1.08628     18.539286
   1.07447     18.479174
   1.06267     18.419063
   1.05086     18.359465
   1.03905     18.300396
   1.02724     18.242116
   1.01544     18.185241
   1.00363     18.129771
   0.99182     18.075900
   0.98001     18.023717
   0.96821     17.973288
   0.95640     17.925201
   0.94459     17.877626
   0.93278     17.839486
   0.92098     17.816805
   0.90917     17.808391
   0.89736     17.813104
   0.88555     17.828539
   0.87375     17.851319
   0.86194     17.816308
   0.85013     17.750734
   0.83832     17.686966
   0.82652     17.624797
   0.81471     17.666170
   0.80290     17.803616
   0.79110     17.941362
   0.77929     17.998600
   0.76748     17.995384
   0.75567     17.925049
   0.74387     17.798857
   0.73206     17.675480
   0.72025     17.555279
   0.70844     17.438662
   0.69664     17.326103
   0.68483     17.218158
   0.67302     17.196966
   0.66121     17.255145
   0.64941     17.305215
   0.63760     17.345042
   0.62579     17.372994
   0.61398     17.387970
   0.60218     17.389650
   0.59037     17.378550
   0.57856     17.355880
   0.57856     17.355879
   0.56675     17.378551
   0.55495     17.389650
   0.54314     17.387970
   0.53133     17.372993
   0.51953     17.345042
   0.50772     17.305215
   0.49591     17.255145
   0.48410     17.196966
   0.47230     17.218158
   0.46049     17.326103
   0.44868     17.438662
   0.43687     17.555279
   0.42507     17.675480
   0.41326     17.798856
   0.40145     17.925049
   0.38964     17.995411
   0.37784     17.998601
   0.36603     17.941347
   0.35422     17.803623
   0.34241     17.666170
   0.33061     17.624795
   0.31880     17.686966
   0.30699     17.750735
   0.29518     17.816308
   0.28338     17.851319
   0.27157     17.828540
   0.25976     17.813105
   0.24796     17.808391
   0.23615     17.816807
   0.22434     17.839484
   0.21253     17.877629
   0.20073     17.925199
   0.18892     17.973294
   0.17711     18.023721
   0.16530     18.075895
   0.15350     18.129775
   0.14169     18.185252
   0.12988     18.242131
   0.11807     18.300387
   0.10627     18.359523
   0.09446     18.419048
   0.08265     18.479168
   0.07084     18.539253
   0.05904     18.599036
   0.04723     18.657794
   0.03542     18.618834
   0.02361     18.492414
   0.01181     18.366102
   0.00000     18.239907
 
# Band-Index:   63
   0.00000     18.734523
   0.01181     18.716816
   0.02361     18.707364
   0.03542     18.702974
   0.04723     18.707818
   0.05904     18.719807
   0.07084     18.737970
   0.08265     18.760802
   0.09446     18.675991
   0.10627     18.577973
   0.11807     18.481889
   0.12988     18.388399
   0.14169     18.298022
   0.15350     18.211516
   0.16530     18.129753
   0.17711     18.053804
   0.18892     17.985072
   0.20073     18.076205
   0.21253     18.202107
   0.22434     18.251016
   0.23615     18.174028
   0.24796     18.098654
   0.25976     18.025136
   0.27157     17.953560
   0.28338     17.883989
   0.29518     17.878402
   0.30699     17.906630
   0.31880     17.933495
   0.33061     17.957056
   0.34241     17.975933
   0.35422     17.989262
   0.36603     17.996728
   0.37784     18.079154
   0.38964     18.053713
   0.40145     17.988582
   0.41326     17.979625
   0.42507     17.971543
   0.43687     17.966756
   0.44868     17.967859
   0.46049     17.976247
   0.47230     17.990648
   0.48410     18.005252
   0.49591     18.008223
   0.50772     17.984189
   0.51953     17.924822
   0.53133     17.835566
   0.54314     17.727385
   0.55495     17.608468
   0.56675     17.483716
   0.57856     17.355880
   0.57856     17.355880
   0.59037     17.483716
   0.60218     17.608466
   0.61398     17.727386
   0.62579     17.835562
   0.63760     17.924825
   0.64941     17.984162
   0.66121     18.008227
   0.67302     18.005247
   0.68483     17.990646
   0.69664     17.976246
   0.70844     17.967855
   0.72025     17.966756
   0.73206     17.971538
   0.74387     17.979620
   0.75567     17.988542
   0.76748     18.053719
   0.77929     18.079209
   0.79110     17.996712
   0.80290     17.989251
   0.81471     17.975927
   0.82652     17.957060
   0.83832     17.933495
   0.85013     17.906632
   0.86194     17.878402
   0.87375     17.883990
   0.88555     17.953558
   0.89736     18.025129
   0.90917     18.098654
   0.92098     18.174012
   0.93278     18.251057
   0.94459     18.202152
   0.95640     18.076215
   0.96821     17.985071
   0.98001     18.053803
   0.99182     18.129745
   1.00363     18.211523
   1.01544     18.298016
   1.02724     18.388349
   1.03905     18.481814
   1.05086     18.578144
   1.06267     18.675925
   1.07447     18.760783
   1.08628     18.737711
   1.09809     18.721601
   1.10989     18.708035
   1.12170     18.703805
   1.13351     18.706429
   1.14532     18.716553
   1.15712     18.734740
 
# Band-Index:   64
   1.15712     18.735756
   1.14532     18.766208
   1.13351     18.771239
   1.12170     18.715220
   1.10989     18.743351
   1.09809     18.871602
   1.08628     18.881741
   1.07447     18.776177
   1.06267     18.788540
   1.05086     18.815298
   1.03905     18.843755
   1.02724     18.864379
   1.01544     18.795888
   1.00363     18.722311
   0.99182     18.645241
   0.98001     18.567537
   0.96821     18.488326
   0.95640     18.408546
   0.94459     18.329350
   0.93278     18.329051
   0.92098     18.456397
   0.90917     18.585184
   0.89736     18.712709
   0.88555     18.806847
   0.87375     18.779150
   0.86194     18.747612
   0.85013     18.717309
   0.83832     18.688356
   0.82652     18.657030
   0.81471     18.600225
   0.80290     18.451337
   0.79110     18.317202
   0.77929     18.184537
   0.76748     18.217246
   0.75567     18.355304
   0.74387     18.457502
   0.73206     18.432769
   0.72025     18.410406
   0.70844     18.389572
   0.69664     18.370402
   0.68483     18.352939
   0.67302     18.337233
   0.66121     18.323282
   0.64941     18.311220
   0.63760     18.300894
   0.62579     18.292408
   0.61398     18.285832
   0.60218     18.281107
   0.59037     18.278278
   0.57856     18.277338
   0.57856     18.277335
   0.56675     18.278279
   0.55495     18.281109
   0.54314     18.285821
   0.53133     18.292434
   0.51953     18.300862
   0.50772     18.311167
   0.49591     18.323347
   0.48410     18.337238
   0.47230     18.352943
   0.46049     18.370420
   0.44868     18.389576
   0.43687     18.410442
   0.42507     18.432856
   0.41326     18.457131
   0.40145     18.357014
   0.38964     18.217403
   0.37784     18.184542
   0.36603     18.317270
   0.35422     18.451879
   0.34241     18.587478
   0.33061     18.656055
   0.31880     18.687454
   0.30699     18.717349
   0.29518     18.747625
   0.28338     18.777304
   0.27157     18.806826
   0.25976     18.714440
   0.24796     18.584199
   0.23615     18.456551
   0.22434     18.328947
   0.21253     18.329347
   0.20073     18.408572
   0.18892     18.488616
   0.17711     18.567215
   0.16530     18.644934
   0.15350     18.720251
   0.14169     18.795381
   0.12988     18.864517
   0.11807     18.843612
   0.10627     18.817008
   0.09446     18.786452
   0.08265     18.776027
   0.07084     18.879586
   0.05904     18.868864
   0.04723     18.744828
   0.03542     18.715535
   0.02361     18.770655
   0.01181     18.763955
   0.00000     18.737951
